COUNTER, GYROX, GYROY, GYROZ, ACCX, ACCY, ACCZ, MAGX, MAGY, MAGZ, TIMESTAMP 

9.0 , 8512.0 , 8064.0 , 9088.0 , 6656.0 , 5376.0 , 4672.0 , 5760.0 , 5632.0 , 11648.0 , 0.048 , 

10.0 , 8512.0 , 8064.0 , 9152.0 , 6592.0 , 5440.0 , 4672.0 , 5888.0 , 5696.0 , 11648.0 , 0.0557161638268 , 

11.0 , 8448.0 , 8000.0 , 9216.0 , 6528.0 , 5440.0 , 4736.0 , 5888.0 , 5632.0 , 11648.0 , 0.0634323276536 , 

12.0 , 8448.0 , 8000.0 , 9280.0 , 6528.0 , 5440.0 , 4736.0 , 5888.0 , 5632.0 , 11648.0 , 0.0711484914804 , 

13.0 , 8448.0 , 8000.0 , 9344.0 , 6464.0 , 5440.0 , 4736.0 , 5888.0 , 5376.0 , 11648.0 , 0.0789287121266 , 

14.0 , 8448.0 , 8000.0 , 9344.0 , 6464.0 , 5440.0 , 4672.0 , 6080.0 , 5632.0 , 11712.0 , 0.0867089327727 , 

15.0 , 8384.0 , 7936.0 , 9408.0 , 6464.0 , 5504.0 , 4544.0 , 6144.0 , 5632.0 , 11712.0 , 0.0944891534189 , 

16.0 , 8384.0 , 7872.0 , 9472.0 , 6464.0 , 5504.0 , 4480.0 , 6208.0 , 5760.0 , 11776.0 , 0.102269374065 , 

17.0 , 8384.0 , 7872.0 , 9536.0 , 6400.0 , 5568.0 , 4416.0 , 6208.0 , 5760.0 , 11776.0 , 0.110049594711 , 

18.0 , 8384.0 , 7744.0 , 9600.0 , 6464.0 , 5760.0 , 4480.0 , 6336.0 , 5696.0 , 11712.0 , 0.117829815357 , 

19.0 , 8384.0 , 7744.0 , 9664.0 , 6464.0 , 5824.0 , 4544.0 , 6464.0 , 5632.0 , 11776.0 , 0.125610036004 , 

20.0 , 8384.0 , 7680.0 , 9728.0 , 6528.0 , 5888.0 , 4672.0 , 6592.0 , 5568.0 , 11840.0 , 0.13339025665 , 

21.0 , 8320.0 , 7680.0 , 9728.0 , 6528.0 , 6016.0 , 4736.0 , 6720.0 , 5504.0 , 11776.0 , 0.141170477296 , 

22.0 , 8320.0 , 7680.0 , 9792.0 , 6528.0 , 6080.0 , 4736.0 , 6720.0 , 5504.0 , 11776.0 , 0.148950697942 , 

23.0 , 8320.0 , 7680.0 , 9792.0 , 6592.0 , 6144.0 , 4672.0 , 6784.0 , 5568.0 , 11776.0 , 0.156730918588 , 

24.0 , 8320.0 , 7680.0 , 9792.0 , 6592.0 , 6208.0 , 4608.0 , 6912.0 , 5568.0 , 11840.0 , 0.164511139235 , 

25.0 , 8320.0 , 7680.0 , 9728.0 , 6528.0 , 6272.0 , 4480.0 , 6976.0 , 5568.0 , 11904.0 , 0.172291359881 , 

26.0 , 8384.0 , 7616.0 , 9728.0 , 6464.0 , 6272.0 , 4480.0 , 6976.0 , 5568.0 , 11904.0 , 0.180071580527 , 

27.0 , 8384.0 , 7552.0 , 9728.0 , 6336.0 , 6400.0 , 4480.0 , 7104.0 , 5632.0 , 11840.0 , 0.187851801173 , 

28.0 , 8448.0 , 7552.0 , 9728.0 , 6272.0 , 6464.0 , 4544.0 , 7232.0 , 5568.0 , 11904.0 , 0.195632021819 , 

29.0 , 8448.0 , 7488.0 , 9728.0 , 6272.0 , 6528.0 , 4672.0 , 7360.0 , 5632.0 , 11968.0 , 0.203412242465 , 

30.0 , 8448.0 , 7488.0 , 9728.0 , 6272.0 , 6656.0 , 4672.0 , 7424.0 , 5504.0 , 11904.0 , 0.211192463112 , 

31.0 , 8512.0 , 7488.0 , 9728.0 , 6336.0 , 6720.0 , 4672.0 , 7424.0 , 5504.0 , 11904.0 , 0.218972683758 , 

32.0 , 8512.0 , 7488.0 , 9664.0 , 6400.0 , 6784.0 , 4608.0 , 7552.0 , 5440.0 , 11968.0 , 0.226752904404 , 

33.0 , 8576.0 , 7488.0 , 9600.0 , 6272.0 , 6912.0 , 4544.0 , 7680.0 , 5696.0 , 11968.0 , 0.23453312505 , 

34.0 , 8640.0 , 7424.0 , 9536.0 , 6208.0 , 6976.0 , 4544.0 , 7808.0 , 5696.0 , 12032.0 , 0.242313345696 , 

35.0 , 8640.0 , 7424.0 , 9536.0 , 6144.0 , 6976.0 , 4544.0 , 7936.0 , 5696.0 , 12032.0 , 0.250093566342 , 

36.0 , 8704.0 , 7360.0 , 9472.0 , 6080.0 , 7040.0 , 4544.0 , 7936.0 , 5696.0 , 12032.0 , 0.257873786989 , 

37.0 , 8768.0 , 7296.0 , 9408.0 , 6016.0 , 7104.0 , 4608.0 , 8064.0 , 5760.0 , 12096.0 , 0.265654007635 , 

38.0 , 8832.0 , 7232.0 , 9408.0 , 5952.0 , 7104.0 , 4736.0 , 8128.0 , 5760.0 , 12160.0 , 0.273434228281 , 

39.0 , 8896.0 , 7232.0 , 9344.0 , 5888.0 , 7168.0 , 4864.0 , 8256.0 , 5760.0 , 12096.0 , 0.281214448927 , 

40.0 , 8896.0 , 7232.0 , 9344.0 , 5888.0 , 7232.0 , 4864.0 , 8256.0 , 5760.0 , 12096.0 , 0.288994669573 , 

41.0 , 8960.0 , 7168.0 , 9280.0 , 5760.0 , 7296.0 , 4864.0 , 8384.0 , 5888.0 , 12160.0 , 0.29677489022 , 

42.0 , 9024.0 , 7168.0 , 9280.0 , 5760.0 , 7360.0 , 4864.0 , 8448.0 , 5888.0 , 12224.0 , 0.304555110866 , 

43.0 , 9088.0 , 7104.0 , 9216.0 , 5632.0 , 7424.0 , 4864.0 , 8576.0 , 6016.0 , 12224.0 , 0.312335331512 , 

44.0 , 9088.0 , 7104.0 , 9152.0 , 5632.0 , 7424.0 , 4928.0 , 8576.0 , 6016.0 , 12224.0 , 0.320115552158 , 

45.0 , 9152.0 , 7040.0 , 9152.0 , 5568.0 , 7488.0 , 5120.0 , 8704.0 , 6080.0 , 12224.0 , 0.327895772804 , 

46.0 , 9152.0 , 7040.0 , 9088.0 , 5568.0 , 7552.0 , 5184.0 , 8768.0 , 6144.0 , 12224.0 , 0.33567599345 , 

47.0 , 9216.0 , 7040.0 , 9024.0 , 5504.0 , 7552.0 , 5248.0 , 8960.0 , 6208.0 , 12288.0 , 0.343456214097 , 

48.0 , 9280.0 , 7040.0 , 9024.0 , 5504.0 , 7616.0 , 5248.0 , 9024.0 , 6464.0 , 12288.0 , 0.351236434743 , 

49.0 , 9280.0 , 7040.0 , 8960.0 , 5376.0 , 7680.0 , 5184.0 , 9024.0 , 6464.0 , 12288.0 , 0.359016655389 , 

50.0 , 9344.0 , 7040.0 , 8896.0 , 5312.0 , 7680.0 , 5248.0 , 9152.0 , 6400.0 , 12352.0 , 0.366796876035 , 

51.0 , 9344.0 , 7040.0 , 8896.0 , 5248.0 , 7680.0 , 5312.0 , 9280.0 , 6464.0 , 12416.0 , 0.374577096681 , 

52.0 , 9408.0 , 7040.0 , 8832.0 , 5184.0 , 7744.0 , 5440.0 , 9344.0 , 6464.0 , 12416.0 , 0.382357317328 , 

53.0 , 9408.0 , 7040.0 , 8832.0 , 5184.0 , 7808.0 , 5504.0 , 9408.0 , 6592.0 , 12416.0 , 0.390137537974 , 

54.0 , 9408.0 , 7040.0 , 8768.0 , 5184.0 , 7808.0 , 5568.0 , 9408.0 , 6592.0 , 12416.0 , 0.39811775862 , 

55.0 , 9408.0 , 7040.0 , 8768.0 , 5120.0 , 7872.0 , 5632.0 , 9536.0 , 6656.0 , 12480.0 , 0.405897979266 , 

56.0 , 9472.0 , 7040.0 , 8704.0 , 5120.0 , 7936.0 , 5696.0 , 9600.0 , 6720.0 , 12416.0 , 0.413678199912 , 

57.0 , 9472.0 , 7040.0 , 8704.0 , 4928.0 , 7936.0 , 5824.0 , 9728.0 , 6784.0 , 12480.0 , 0.421458420558 , 

58.0 , 9472.0 , 7040.0 , 8640.0 , 4864.0 , 8000.0 , 5888.0 , 9728.0 , 6784.0 , 12480.0 , 0.429238641205 , 

59.0 , 9472.0 , 7104.0 , 8640.0 , 4800.0 , 8064.0 , 6080.0 , 9792.0 , 6848.0 , 12480.0 , 0.437018861851 , 

60.0 , 9472.0 , 7104.0 , 8640.0 , 4736.0 , 8064.0 , 6144.0 , 9856.0 , 6976.0 , 12480.0 , 0.444799082497 , 

61.0 , 9408.0 , 7168.0 , 8640.0 , 4736.0 , 8128.0 , 6336.0 , 9920.0 , 7040.0 , 12480.0 , 0.452579303143 , 

62.0 , 9408.0 , 7232.0 , 8640.0 , 4736.0 , 8256.0 , 6336.0 , 9920.0 , 7040.0 , 12480.0 , 0.460559523789 , 

63.0 , 9408.0 , 7296.0 , 8576.0 , 4672.0 , 8320.0 , 6400.0 , 10048.0 , 7552.0 , 12544.0 , 0.468339744435 , 

64.0 , 9408.0 , 7296.0 , 8576.0 , 4672.0 , 8256.0 , 6400.0 , 10112.0 , 7040.0 , 12480.0 , 0.476119965082 , 

65.0 , 9344.0 , 7360.0 , 8576.0 , 4736.0 , 8320.0 , 6464.0 , 10176.0 , 7296.0 , 12480.0 , 0.483900185728 , 

66.0 , 9344.0 , 7360.0 , 8576.0 , 4672.0 , 8384.0 , 6464.0 , 10240.0 , 7360.0 , 12544.0 , 0.491680406374 , 

67.0 , 9280.0 , 7424.0 , 8576.0 , 4608.0 , 8384.0 , 6464.0 , 10304.0 , 7168.0 , 12544.0 , 0.49946062702 , 

68.0 , 9280.0 , 7488.0 , 8512.0 , 4544.0 , 8448.0 , 6528.0 , 10304.0 , 7168.0 , 12544.0 , 0.507240847666 , 

69.0 , 9216.0 , 7488.0 , 8512.0 , 4480.0 , 8448.0 , 6528.0 , 10304.0 , 7488.0 , 12544.0 , 0.515021068313 , 

70.0 , 9216.0 , 7488.0 , 8448.0 , 4480.0 , 8448.0 , 6528.0 , 10432.0 , 7552.0 , 12544.0 , 0.522801288959 , 

71.0 , 9152.0 , 7552.0 , 8384.0 , 4480.0 , 8448.0 , 6464.0 , 10496.0 , 7360.0 , 12544.0 , 0.530581509605 , 

72.0 , 9088.0 , 7552.0 , 8384.0 , 4480.0 , 8512.0 , 6464.0 , 10496.0 , 7360.0 , 12544.0 , 0.538361730251 , 

73.0 , 9088.0 , 7616.0 , 8320.0 , 4352.0 , 8576.0 , 6464.0 , 10496.0 , 7680.0 , 12480.0 , 0.546141950897 , 

74.0 , 9088.0 , 7616.0 , 8320.0 , 4288.0 , 8512.0 , 6528.0 , 10496.0 , 7744.0 , 12544.0 , 0.553922171543 , 

75.0 , 9024.0 , 7680.0 , 8320.0 , 4224.0 , 8576.0 , 6656.0 , 10624.0 , 7808.0 , 12544.0 , 0.56170239219 , 

76.0 , 9024.0 , 7680.0 , 8320.0 , 4160.0 , 8576.0 , 6720.0 , 10624.0 , 7808.0 , 12544.0 , 0.569482612836 , 

77.0 , 8960.0 , 7744.0 , 8320.0 , 4160.0 , 8576.0 , 6784.0 , 10624.0 , 7680.0 , 12544.0 , 0.577262833482 , 

78.0 , 8896.0 , 7744.0 , 8320.0 , 4160.0 , 8640.0 , 6784.0 , 10688.0 , 7872.0 , 12544.0 , 0.585243054128 , 

79.0 , 8832.0 , 7808.0 , 8384.0 , 4160.0 , 8704.0 , 6720.0 , 10752.0 , 7872.0 , 12544.0 , 0.593023274774 , 

80.0 , 8768.0 , 7808.0 , 8384.0 , 4160.0 , 8704.0 , 6720.0 , 10752.0 , 8192.0 , 12480.0 , 0.60080349542 , 

81.0 , 8704.0 , 7872.0 , 8448.0 , 4224.0 , 8768.0 , 6656.0 , 10752.0 , 8192.0 , 12480.0 , 0.608583716067 , 

82.0 , 8640.0 , 7872.0 , 8448.0 , 4224.0 , 8832.0 , 6656.0 , 10688.0 , 8000.0 , 12544.0 , 0.616563936713 , 

83.0 , 8640.0 , 7872.0 , 8448.0 , 4288.0 , 8832.0 , 6656.0 , 10752.0 , 8000.0 , 12480.0 , 0.624344157359 , 

84.0 , 8576.0 , 7872.0 , 8448.0 , 4352.0 , 8896.0 , 6720.0 , 10816.0 , 8064.0 , 12480.0 , 0.632124378005 , 

85.0 , 8576.0 , 7872.0 , 8448.0 , 4352.0 , 8960.0 , 6656.0 , 10816.0 , 8064.0 , 12480.0 , 0.639904598651 , 

86.0 , 8512.0 , 7936.0 , 8384.0 , 4352.0 , 8960.0 , 6656.0 , 10816.0 , 8064.0 , 12480.0 , 0.647884819298 , 

87.0 , 8512.0 , 7936.0 , 8384.0 , 4288.0 , 8960.0 , 6656.0 , 10880.0 , 8128.0 , 12480.0 , 0.655665039944 , 

88.0 , 8448.0 , 7936.0 , 8384.0 , 4288.0 , 8960.0 , 6656.0 , 10880.0 , 8064.0 , 12480.0 , 0.66344526059 , 

89.0 , 8448.0 , 7936.0 , 8384.0 , 4288.0 , 8960.0 , 6656.0 , 10880.0 , 8128.0 , 12480.0 , 0.671225481236 , 

90.0 , 8384.0 , 7936.0 , 8384.0 , 4288.0 , 8960.0 , 6656.0 , 10880.0 , 8128.0 , 12480.0 , 0.679005701882 , 

91.0 , 8384.0 , 7936.0 , 8320.0 , 4288.0 , 8960.0 , 6656.0 , 10880.0 , 8192.0 , 12480.0 , 0.686785922528 , 

92.0 , 8384.0 , 7872.0 , 8320.0 , 4288.0 , 8960.0 , 6656.0 , 10944.0 , 8192.0 , 12416.0 , 0.694566143175 , 

93.0 , 8384.0 , 7872.0 , 8320.0 , 4224.0 , 8960.0 , 6720.0 , 10944.0 , 8192.0 , 12480.0 , 0.702346363821 , 

94.0 , 8320.0 , 7936.0 , 8256.0 , 4224.0 , 8960.0 , 6720.0 , 10944.0 , 8192.0 , 12480.0 , 0.710126584467 , 

95.0 , 8320.0 , 7936.0 , 8256.0 , 4160.0 , 8960.0 , 6720.0 , 11008.0 , 7936.0 , 12352.0 , 0.717906805113 , 

96.0 , 8320.0 , 7936.0 , 8256.0 , 4096.0 , 8896.0 , 6720.0 , 11008.0 , 8192.0 , 12416.0 , 0.725687025759 , 

97.0 , 8320.0 , 7936.0 , 8256.0 , 4096.0 , 8960.0 , 6784.0 , 11008.0 , 8128.0 , 12416.0 , 0.733467246406 , 

98.0 , 8320.0 , 7936.0 , 8256.0 , 4096.0 , 8960.0 , 6784.0 , 11008.0 , 8256.0 , 12416.0 , 0.741247467052 , 

99.0 , 8256.0 , 8000.0 , 8256.0 , 4096.0 , 8960.0 , 6784.0 , 11008.0 , 7936.0 , 12352.0 , 0.749027687698 , 

100.0 , 8256.0 , 8000.0 , 8256.0 , 4032.0 , 8960.0 , 6784.0 , 11008.0 , 7936.0 , 12352.0 , 0.756807908344 , 

101.0 , 8256.0 , 8000.0 , 8256.0 , 4032.0 , 8896.0 , 6784.0 , 11072.0 , 8256.0 , 12352.0 , 0.76458812899 , 

102.0 , 8256.0 , 8064.0 , 8256.0 , 3968.0 , 8896.0 , 6720.0 , 11072.0 , 8256.0 , 12352.0 , 0.772568349636 , 

103.0 , 8256.0 , 8064.0 , 8256.0 , 3968.0 , 8896.0 , 6720.0 , 11136.0 , 8256.0 , 12352.0 , 0.780348570283 , 

104.0 , 8256.0 , 8064.0 , 8256.0 , 3968.0 , 8960.0 , 6720.0 , 11136.0 , 8256.0 , 12352.0 , 0.788328790929 , 

105.0 , 8192.0 , 8064.0 , 8256.0 , 3904.0 , 8960.0 , 6720.0 , 11008.0 , 8320.0 , 12352.0 , 0.796109011575 , 

106.0 , 8192.0 , 8064.0 , 8256.0 , 3968.0 , 8960.0 , 6720.0 , 11136.0 , 8256.0 , 12288.0 , 0.803889232221 , 

107.0 , 8192.0 , 8064.0 , 8256.0 , 3904.0 , 8960.0 , 6720.0 , 11136.0 , 8192.0 , 12352.0 , 0.811669452867 , 

108.0 , 8192.0 , 8128.0 , 8256.0 , 3840.0 , 8960.0 , 6720.0 , 11136.0 , 8192.0 , 12352.0 , 0.819449673513 , 

109.0 , 8192.0 , 8128.0 , 8256.0 , 3840.0 , 8960.0 , 6784.0 , 11136.0 , 8320.0 , 12288.0 , 0.82722989416 , 

110.0 , 8192.0 , 8128.0 , 8256.0 , 3840.0 , 8960.0 , 6784.0 , 11136.0 , 8256.0 , 12288.0 , 0.835210114806 , 

111.0 , 8192.0 , 8128.0 , 8320.0 , 3840.0 , 8960.0 , 6912.0 , 11136.0 , 8320.0 , 12352.0 , 0.842990335452 , 

112.0 , 8128.0 , 8192.0 , 8320.0 , 3840.0 , 9024.0 , 6912.0 , 11136.0 , 8256.0 , 12288.0 , 0.850970556098 , 

113.0 , 8128.0 , 8192.0 , 8320.0 , 3904.0 , 9024.0 , 6912.0 , 11136.0 , 8256.0 , 12288.0 , 0.858750776744 , 

114.0 , 8128.0 , 8192.0 , 8320.0 , 3968.0 , 8960.0 , 6912.0 , 11136.0 , 8256.0 , 12224.0 , 0.866530997391 , 

115.0 , 8064.0 , 8256.0 , 8320.0 , 4032.0 , 8960.0 , 6784.0 , 11200.0 , 8256.0 , 12224.0 , 0.874311218037 , 

116.0 , 8064.0 , 8256.0 , 8320.0 , 4032.0 , 9024.0 , 6656.0 , 11200.0 , 8320.0 , 12224.0 , 0.882291438683 , 

117.0 , 8064.0 , 8256.0 , 8320.0 , 4032.0 , 9024.0 , 6592.0 , 11200.0 , 8320.0 , 12288.0 , 0.890071659329 , 

118.0 , 8064.0 , 8256.0 , 8320.0 , 3968.0 , 9024.0 , 6528.0 , 11200.0 , 8320.0 , 12288.0 , 0.898051879975 , 

119.0 , 8064.0 , 8256.0 , 8320.0 , 3968.0 , 9088.0 , 6528.0 , 11200.0 , 8256.0 , 12352.0 , 0.905832100621 , 

120.0 , 8064.0 , 8256.0 , 8320.0 , 3968.0 , 9088.0 , 6528.0 , 11200.0 , 8256.0 , 12288.0 , 0.913612321268 , 

121.0 , 8128.0 , 8256.0 , 8320.0 , 3968.0 , 9152.0 , 6528.0 , 11264.0 , 8320.0 , 12288.0 , 0.921392541914 , 

122.0 , 8128.0 , 8192.0 , 8320.0 , 4032.0 , 9088.0 , 6592.0 , 11264.0 , 8320.0 , 12288.0 , 0.92917276256 , 

123.0 , 8128.0 , 8192.0 , 8320.0 , 4032.0 , 9152.0 , 6592.0 , 11200.0 , 8256.0 , 12224.0 , 0.936952983206 , 

124.0 , 8128.0 , 8192.0 , 8320.0 , 4032.0 , 9152.0 , 6592.0 , 11264.0 , 8320.0 , 12288.0 , 0.944933203852 , 

125.0 , 8128.0 , 8192.0 , 8320.0 , 4032.0 , 9088.0 , 6592.0 , 11200.0 , 8256.0 , 12224.0 , 0.952913424499 , 

126.0 , 8128.0 , 8192.0 , 8256.0 , 4032.0 , 9152.0 , 6592.0 , 11200.0 , 8256.0 , 12224.0 , 0.960893645145 , 

127.0 , 8128.0 , 8192.0 , 8256.0 , 4032.0 , 9152.0 , 6592.0 , 11200.0 , 8320.0 , 12224.0 , 0.968673865791 , 

128.0 , 8128.0 , 8192.0 , 8256.0 , 4032.0 , 9120.0 , 6592.0 , 11232.0 , 8320.0 , 12224.0 , 0.976554086437 , 

0.0 , 8128.0 , 8192.0 , 8256.0 , 4032.0 , 9088.0 , 6592.0 , 11264.0 , 8320.0 , 12224.0 , 0.984334307083 , 

1.0 , 8128.0 , 8192.0 , 8256.0 , 4032.0 , 9152.0 , 6656.0 , 11264.0 , 8320.0 , 12224.0 , 0.992114527729 , 

2.0 , 8128.0 , 8192.0 , 8256.0 , 3968.0 , 9152.0 , 6656.0 , 11264.0 , 8128.0 , 12288.0 , 0.999894748376 , 

3.0 , 8192.0 , 8192.0 , 8256.0 , 3968.0 , 9152.0 , 6656.0 , 11264.0 , 8576.0 , 12224.0 , 1.00767496902 , 

4.0 , 8192.0 , 8192.0 , 8256.0 , 4032.0 , 9152.0 , 6656.0 , 11200.0 , 8576.0 , 12224.0 , 1.01545518967 , 

5.0 , 8192.0 , 8192.0 , 8256.0 , 4032.0 , 9152.0 , 6592.0 , 11264.0 , 8320.0 , 12224.0 , 1.02323541031 , 

6.0 , 8192.0 , 8192.0 , 8192.0 , 4032.0 , 9152.0 , 6592.0 , 11264.0 , 8320.0 , 12160.0 , 1.03101563096 , 

7.0 , 8192.0 , 8192.0 , 8192.0 , 3968.0 , 9152.0 , 6592.0 , 11328.0 , 8320.0 , 12224.0 , 1.03879585161 , 

8.0 , 8192.0 , 8192.0 , 8256.0 , 3968.0 , 9088.0 , 6656.0 , 11328.0 , 8320.0 , 12224.0 , 1.04657607225 , 

9.0 , 8192.0 , 8192.0 , 8192.0 , 3968.0 , 9088.0 , 6656.0 , 11264.0 , 8320.0 , 12224.0 , 1.0543562929 , 

10.0 , 8256.0 , 8192.0 , 8192.0 , 3968.0 , 9088.0 , 6656.0 , 11200.0 , 8384.0 , 12224.0 , 1.06213651355 , 

11.0 , 8192.0 , 8192.0 , 8192.0 , 3968.0 , 9088.0 , 6720.0 , 11264.0 , 8384.0 , 12224.0 , 1.06991673419 , 

12.0 , 8192.0 , 8192.0 , 8192.0 , 3968.0 , 9152.0 , 6720.0 , 11264.0 , 8384.0 , 12224.0 , 1.07769695484 , 

13.0 , 8192.0 , 8256.0 , 8192.0 , 3968.0 , 9152.0 , 6784.0 , 11264.0 , 8384.0 , 12224.0 , 1.08547717548 , 

14.0 , 8192.0 , 8256.0 , 8192.0 , 3968.0 , 9088.0 , 6784.0 , 11264.0 , 8384.0 , 12224.0 , 1.09325739613 , 

15.0 , 8192.0 , 8256.0 , 8192.0 , 3968.0 , 9088.0 , 6784.0 , 11264.0 , 8320.0 , 12224.0 , 1.10103761678 , 

16.0 , 8192.0 , 8256.0 , 8192.0 , 3968.0 , 9088.0 , 6784.0 , 11328.0 , 8000.0 , 12224.0 , 1.10881783742 , 

17.0 , 8192.0 , 8320.0 , 8192.0 , 3968.0 , 9088.0 , 6720.0 , 11328.0 , 8000.0 , 12224.0 , 1.11659805807 , 

18.0 , 8192.0 , 8320.0 , 8192.0 , 3968.0 , 9152.0 , 6720.0 , 11328.0 , 8128.0 , 12224.0 , 1.12437827871 , 

19.0 , 8192.0 , 8320.0 , 8192.0 , 3968.0 , 9088.0 , 6720.0 , 11328.0 , 8384.0 , 12224.0 , 1.13215849936 , 

20.0 , 8192.0 , 8320.0 , 8192.0 , 3968.0 , 9088.0 , 6720.0 , 11264.0 , 8384.0 , 12224.0 , 1.13993872001 , 

21.0 , 8192.0 , 8320.0 , 8192.0 , 3968.0 , 9088.0 , 6720.0 , 11328.0 , 8384.0 , 12224.0 , 1.14771894065 , 

22.0 , 8192.0 , 8320.0 , 8192.0 , 3968.0 , 9088.0 , 6784.0 , 11328.0 , 8384.0 , 12224.0 , 1.1554991613 , 

23.0 , 8192.0 , 8320.0 , 8192.0 , 3968.0 , 9088.0 , 6720.0 , 11328.0 , 8320.0 , 12224.0 , 1.16327938195 , 

24.0 , 8192.0 , 8384.0 , 8192.0 , 3968.0 , 9024.0 , 6720.0 , 11200.0 , 8384.0 , 12224.0 , 1.17105960259 , 

25.0 , 8192.0 , 8384.0 , 8192.0 , 3968.0 , 9088.0 , 6656.0 , 11328.0 , 8320.0 , 12224.0 , 1.17883982324 , 

26.0 , 8192.0 , 8384.0 , 8192.0 , 3968.0 , 9088.0 , 6656.0 , 11328.0 , 8320.0 , 12224.0 , 1.18662004388 , 

27.0 , 8192.0 , 8384.0 , 8192.0 , 3968.0 , 9088.0 , 6592.0 , 11264.0 , 8320.0 , 12224.0 , 1.19440026453 , 

28.0 , 8192.0 , 8384.0 , 8192.0 , 3968.0 , 9088.0 , 6592.0 , 11264.0 , 8320.0 , 12288.0 , 1.20238048518 , 

29.0 , 8192.0 , 8320.0 , 8192.0 , 3968.0 , 9088.0 , 6592.0 , 11328.0 , 8320.0 , 12224.0 , 1.21016070582 , 

30.0 , 8128.0 , 8320.0 , 8192.0 , 3968.0 , 9024.0 , 6592.0 , 11328.0 , 8320.0 , 12224.0 , 1.21794092647 , 

31.0 , 8192.0 , 8320.0 , 8192.0 , 3968.0 , 9088.0 , 6656.0 , 11264.0 , 8384.0 , 12224.0 , 1.22572114711 , 

32.0 , 8192.0 , 8320.0 , 8192.0 , 3968.0 , 9088.0 , 6656.0 , 11200.0 , 8384.0 , 12224.0 , 1.23350136776 , 

33.0 , 8128.0 , 8320.0 , 8192.0 , 3968.0 , 9088.0 , 6656.0 , 11200.0 , 8384.0 , 12224.0 , 1.24128158841 , 

34.0 , 8128.0 , 8384.0 , 8192.0 , 3968.0 , 9088.0 , 6656.0 , 11328.0 , 8512.0 , 12224.0 , 1.24906180905 , 

35.0 , 8128.0 , 8384.0 , 8192.0 , 4032.0 , 9088.0 , 6656.0 , 11328.0 , 8512.0 , 12224.0 , 1.2568420297 , 

36.0 , 8128.0 , 8320.0 , 8192.0 , 3968.0 , 9088.0 , 6592.0 , 11328.0 , 8448.0 , 12224.0 , 1.26462225035 , 

37.0 , 8128.0 , 8320.0 , 8192.0 , 3968.0 , 9088.0 , 6592.0 , 11264.0 , 8384.0 , 12288.0 , 1.27240247099 , 

38.0 , 8128.0 , 8320.0 , 8192.0 , 4032.0 , 9088.0 , 6656.0 , 11328.0 , 8320.0 , 12288.0 , 1.28018269164 , 

39.0 , 8128.0 , 8320.0 , 8192.0 , 3968.0 , 9088.0 , 6656.0 , 11264.0 , 8320.0 , 12224.0 , 1.28796291228 , 

40.0 , 8064.0 , 8320.0 , 8192.0 , 4032.0 , 9088.0 , 6656.0 , 11264.0 , 8320.0 , 12224.0 , 1.29574313293 , 

41.0 , 8064.0 , 8320.0 , 8192.0 , 3968.0 , 9088.0 , 6592.0 , 11264.0 , 8320.0 , 12224.0 , 1.30352335358 , 

42.0 , 8064.0 , 8320.0 , 8192.0 , 4032.0 , 9088.0 , 6592.0 , 11264.0 , 8320.0 , 12224.0 , 1.31130357422 , 

43.0 , 8064.0 , 8320.0 , 8192.0 , 3968.0 , 9088.0 , 6528.0 , 11264.0 , 8320.0 , 12224.0 , 1.31908379487 , 

44.0 , 8064.0 , 8320.0 , 8192.0 , 3968.0 , 9088.0 , 6528.0 , 11264.0 , 8320.0 , 12224.0 , 1.32686401552 , 

45.0 , 8064.0 , 8320.0 , 8192.0 , 3968.0 , 9088.0 , 6528.0 , 11264.0 , 8320.0 , 12288.0 , 1.33464423616 , 

46.0 , 8064.0 , 8320.0 , 8192.0 , 3968.0 , 9088.0 , 6592.0 , 11200.0 , 8384.0 , 12288.0 , 1.34242445681 , 

47.0 , 8064.0 , 8320.0 , 8192.0 , 3968.0 , 9088.0 , 6592.0 , 11200.0 , 8320.0 , 12224.0 , 1.35020467745 , 

48.0 , 8064.0 , 8320.0 , 8192.0 , 4032.0 , 9088.0 , 6592.0 , 11200.0 , 8064.0 , 12224.0 , 1.3579848981 , 

49.0 , 8064.0 , 8320.0 , 8128.0 , 4032.0 , 9088.0 , 6592.0 , 11264.0 , 8064.0 , 12224.0 , 1.36576511875 , 

50.0 , 8064.0 , 8320.0 , 8128.0 , 3968.0 , 9024.0 , 6592.0 , 11264.0 , 8256.0 , 12224.0 , 1.37354533939 , 

51.0 , 8064.0 , 8320.0 , 8128.0 , 3968.0 , 9024.0 , 6528.0 , 11264.0 , 8256.0 , 12224.0 , 1.38132556004 , 

52.0 , 8064.0 , 8320.0 , 8128.0 , 3968.0 , 9024.0 , 6464.0 , 11264.0 , 8256.0 , 12224.0 , 1.38930578068 , 

53.0 , 8064.0 , 8320.0 , 8128.0 , 3968.0 , 9024.0 , 6464.0 , 11264.0 , 8128.0 , 12224.0 , 1.39708600133 , 

54.0 , 8064.0 , 8320.0 , 8192.0 , 3968.0 , 9024.0 , 6464.0 , 11264.0 , 8128.0 , 12224.0 , 1.40506622198 , 

55.0 , 8064.0 , 8256.0 , 8192.0 , 3968.0 , 9024.0 , 6528.0 , 11200.0 , 8320.0 , 12224.0 , 1.41284644262 , 

56.0 , 8064.0 , 8256.0 , 8192.0 , 3968.0 , 9088.0 , 6592.0 , 11264.0 , 8256.0 , 12224.0 , 1.42062666327 , 

57.0 , 8064.0 , 8256.0 , 8192.0 , 3968.0 , 9088.0 , 6656.0 , 11200.0 , 8320.0 , 12224.0 , 1.42840688392 , 

58.0 , 8064.0 , 8256.0 , 8192.0 , 4032.0 , 9088.0 , 6656.0 , 11200.0 , 8320.0 , 12224.0 , 1.43618710456 , 

59.0 , 8064.0 , 8256.0 , 8192.0 , 4096.0 , 9152.0 , 6464.0 , 11200.0 , 8256.0 , 12288.0 , 1.44396732521 , 

60.0 , 8064.0 , 8320.0 , 8128.0 , 4160.0 , 9152.0 , 6336.0 , 11264.0 , 8256.0 , 12224.0 , 1.45174754585 , 

61.0 , 8128.0 , 8320.0 , 8064.0 , 4096.0 , 9216.0 , 6016.0 , 11264.0 , 8256.0 , 12224.0 , 1.4595277665 , 

62.0 , 8256.0 , 8320.0 , 8000.0 , 4032.0 , 9280.0 , 5888.0 , 11264.0 , 8256.0 , 12224.0 , 1.46730798715 , 

63.0 , 8320.0 , 8320.0 , 8000.0 , 3968.0 , 9344.0 , 5888.0 , 11200.0 , 8576.0 , 12224.0 , 1.47508820779 , 

64.0 , 8384.0 , 8320.0 , 7936.0 , 4032.0 , 9408.0 , 5888.0 , 11200.0 , 8192.0 , 12224.0 , 1.48286842844 , 

65.0 , 8576.0 , 8320.0 , 7872.0 , 4160.0 , 9472.0 , 6080.0 , 11200.0 , 8256.0 , 12224.0 , 1.49064864908 , 

66.0 , 8640.0 , 8384.0 , 7808.0 , 4160.0 , 9472.0 , 6144.0 , 11200.0 , 7936.0 , 12288.0 , 1.49842886973 , 

67.0 , 8704.0 , 8384.0 , 7744.0 , 4160.0 , 9472.0 , 6272.0 , 11200.0 , 7936.0 , 12288.0 , 1.50620909038 , 

68.0 , 8768.0 , 8384.0 , 7744.0 , 4096.0 , 9408.0 , 6272.0 , 11200.0 , 7936.0 , 12288.0 , 1.51418931102 , 

69.0 , 8832.0 , 8384.0 , 7680.0 , 3968.0 , 9344.0 , 6272.0 , 11136.0 , 8320.0 , 12288.0 , 1.52196953167 , 

70.0 , 8832.0 , 8384.0 , 7680.0 , 3776.0 , 9280.0 , 6336.0 , 11200.0 , 8320.0 , 12288.0 , 1.52974975232 , 

71.0 , 8832.0 , 8384.0 , 7680.0 , 3712.0 , 9152.0 , 6400.0 , 11136.0 , 8384.0 , 12352.0 , 1.53752997296 , 

72.0 , 8832.0 , 8384.0 , 7680.0 , 3712.0 , 9152.0 , 6528.0 , 11136.0 , 8384.0 , 12352.0 , 1.54531019361 , 

73.0 , 8768.0 , 8320.0 , 7744.0 , 3776.0 , 9088.0 , 6592.0 , 11200.0 , 8320.0 , 12288.0 , 1.55309041425 , 

74.0 , 8704.0 , 8384.0 , 7744.0 , 3840.0 , 9088.0 , 6528.0 , 11200.0 , 8320.0 , 12352.0 , 1.5610706349 , 

75.0 , 8704.0 , 8384.0 , 7744.0 , 3968.0 , 9024.0 , 6400.0 , 11136.0 , 8384.0 , 12416.0 , 1.56885085555 , 

76.0 , 8640.0 , 8320.0 , 7744.0 , 4032.0 , 9024.0 , 6336.0 , 11136.0 , 8384.0 , 12416.0 , 1.57683107619 , 

77.0 , 8640.0 , 8320.0 , 7744.0 , 4032.0 , 9088.0 , 6144.0 , 11136.0 , 8384.0 , 12416.0 , 1.58461129684 , 

78.0 , 8704.0 , 8320.0 , 7680.0 , 3968.0 , 9088.0 , 6080.0 , 11136.0 , 8384.0 , 12352.0 , 1.59259151749 , 

79.0 , 8704.0 , 8320.0 , 7680.0 , 4096.0 , 9088.0 , 6080.0 , 11136.0 , 8320.0 , 12352.0 , 1.60057173813 , 

80.0 , 8768.0 , 8320.0 , 7680.0 , 4224.0 , 9152.0 , 6016.0 , 11136.0 , 8320.0 , 12352.0 , 1.60835195878 , 

81.0 , 8832.0 , 8320.0 , 7616.0 , 4352.0 , 9216.0 , 5696.0 , 11072.0 , 8576.0 , 12352.0 , 1.61613217942 , 

82.0 , 8896.0 , 8320.0 , 7616.0 , 4352.0 , 9216.0 , 5504.0 , 11072.0 , 8384.0 , 12416.0 , 1.62391240007 , 

83.0 , 9088.0 , 8256.0 , 7552.0 , 4288.0 , 9344.0 , 5184.0 , 11072.0 , 8384.0 , 12352.0 , 1.63169262072 , 

84.0 , 9216.0 , 8256.0 , 7488.0 , 4224.0 , 9408.0 , 5056.0 , 11136.0 , 8448.0 , 12416.0 , 1.63947284136 , 

85.0 , 9536.0 , 8256.0 , 7360.0 , 4224.0 , 9472.0 , 4928.0 , 11072.0 , 8384.0 , 12416.0 , 1.64725306201 , 

86.0 , 9728.0 , 8192.0 , 7360.0 , 4416.0 , 9536.0 , 4928.0 , 11072.0 , 8384.0 , 12416.0 , 1.65523328265 , 

87.0 , 10176.0 , 8256.0 , 7168.0 , 4544.0 , 9472.0 , 4800.0 , 11136.0 , 8512.0 , 12416.0 , 1.6630135033 , 

88.0 , 10368.0 , 8256.0 , 7040.0 , 4864.0 , 9408.0 , 4736.0 , 11072.0 , 8576.0 , 12416.0 , 1.67079372395 , 

89.0 , 10880.0 , 8320.0 , 6848.0 , 4992.0 , 9152.0 , 4736.0 , 11072.0 , 8512.0 , 12480.0 , 1.67857394459 , 

90.0 , 11200.0 , 8384.0 , 6720.0 , 4992.0 , 8960.0 , 4736.0 , 11072.0 , 8512.0 , 12480.0 , 1.68655416524 , 

91.0 , 11520.0 , 8384.0 , 6592.0 , 4800.0 , 8512.0 , 4992.0 , 11072.0 , 8832.0 , 12480.0 , 1.69433438589 , 

92.0 , 12096.0 , 8448.0 , 6464.0 , 4608.0 , 8256.0 , 5184.0 , 11008.0 , 8960.0 , 12544.0 , 1.70231460653 , 

93.0 , 12352.0 , 8512.0 , 6400.0 , 4352.0 , 7744.0 , 5696.0 , 11008.0 , 9088.0 , 12608.0 , 1.71009482718 , 

94.0 , 12864.0 , 8576.0 , 6336.0 , 4288.0 , 7552.0 , 5952.0 , 11008.0 , 9088.0 , 12608.0 , 1.71807504782 , 

95.0 , 13056.0 , 8640.0 , 6400.0 , 4160.0 , 7104.0 , 6528.0 , 11008.0 , 9344.0 , 12544.0 , 1.72585526847 , 

96.0 , 13440.0 , 8704.0 , 6464.0 , 4160.0 , 6912.0 , 6784.0 , 10944.0 , 9536.0 , 12544.0 , 1.73363548912 , 

97.0 , 13568.0 , 8704.0 , 6464.0 , 4160.0 , 6528.0 , 7168.0 , 10944.0 , 9792.0 , 12672.0 , 1.74141570976 , 

98.0 , 13696.0 , 8768.0 , 6528.0 , 4160.0 , 6336.0 , 7360.0 , 10880.0 , 10048.0 , 12608.0 , 1.74939593041 , 

99.0 , 13824.0 , 8832.0 , 6592.0 , 4032.0 , 6016.0 , 7680.0 , 10880.0 , 10048.0 , 12608.0 , 1.75717615105 , 

100.0 , 13888.0 , 8832.0 , 6656.0 , 3776.0 , 5888.0 , 7872.0 , 10880.0 , 10240.0 , 12544.0 , 1.7651563717 , 

101.0 , 13760.0 , 8832.0 , 6976.0 , 2816.0 , 5696.0 , 8384.0 , 10944.0 , 10496.0 , 12544.0 , 1.77293659235 , 

102.0 , 13632.0 , 8832.0 , 7168.0 , 1536.0 , 5568.0 , 9152.0 , 10816.0 , 10752.0 , 12352.0 , 1.78091681299 , 

103.0 , 12992.0 , 8640.0 , 7936.0 , 1024.0 , 5952.0 , 9728.0 , 10880.0 , 11008.0 , 12416.0 , 1.78869703364 , 

104.0 , 12480.0 , 8512.0 , 8128.0 , 320.0 , 6272.0 , 10944.0 , 10880.0 , 11008.0 , 12416.0 , 1.79667725429 , 

105.0 , 11136.0 , 8384.0 , 8768.0 , 384.0 , 7040.0 , 12096.0 , 10944.0 , 11136.0 , 12288.0 , 1.80445747493 , 

106.0 , 10368.0 , 8384.0 , 9088.0 , 832.0 , 7488.0 , 12736.0 , 10880.0 , 11328.0 , 12288.0 , 1.81243769558 , 

107.0 , 9472.0 , 8448.0 , 9344.0 , 1920.0 , 8192.0 , 13376.0 , 10880.0 , 11584.0 , 12288.0 , 1.82021791622 , 

108.0 , 7552.0 , 8704.0 , 9792.0 , 2624.0 , 8256.0 , 13184.0 , 10880.0 , 11584.0 , 12288.0 , 1.82799813687 , 

109.0 , 6592.0 , 8832.0 , 9920.0 , 3840.0 , 8000.0 , 12480.0 , 10752.0 , 11392.0 , 12352.0 , 1.83577835752 , 

110.0 , 4672.0 , 8960.0 , 10112.0 , 4416.0 , 7744.0 , 12032.0 , 10752.0 , 11200.0 , 12480.0 , 1.84355857816 , 

111.0 , 3776.0 , 8960.0 , 10048.0 , 5120.0 , 6720.0 , 11200.0 , 10688.0 , 11072.0 , 12608.0 , 1.85133879881 , 

112.0 , 2240.0 , 8896.0 , 9984.0 , 5184.0 , 6080.0 , 10816.0 , 10688.0 , 11072.0 , 12608.0 , 1.85911901946 , 

113.0 , 1600.0 , 8832.0 , 9984.0 , 4736.0 , 4864.0 , 9984.0 , 10624.0 , 10752.0 , 12736.0 , 1.8668992401 , 

114.0 , 384.0 , 8704.0 , 9984.0 , 4288.0 , 4288.0 , 9664.0 , 10560.0 , 10432.0 , 12928.0 , 1.87487946075 , 

115.0 , 0.0 , 8704.0 , 10048.0 , 3520.0 , 2944.0 , 9280.0 , 10560.0 , 9984.0 , 12992.0 , 1.88265968139 , 

116.0 , 0.0 , 8704.0 , 10048.0 , 3200.0 , 2368.0 , 9152.0 , 10432.0 , 9472.0 , 13056.0 , 1.89063990204 , 

117.0 , 0.0 , 8768.0 , 10240.0 , 3136.0 , 1344.0 , 8768.0 , 10432.0 , 8896.0 , 13120.0 , 1.89862012269 , 

118.0 , 0.0 , 8896.0 , 10304.0 , 3712.0 , 384.0 , 8320.0 , 10432.0 , 8896.0 , 13120.0 , 1.90660034333 , 

119.0 , 0.0 , 9088.0 , 10432.0 , 4160.0 , 64.0 , 8064.0 , 10432.0 , 8512.0 , 12992.0 , 1.91438056398 , 

120.0 , 0.0 , 9216.0 , 10496.0 , 5120.0 , 64.0 , 7424.0 , 10432.0 , 7936.0 , 12864.0 , 1.92236078462 , 

121.0 , 0.0 , 9408.0 , 10560.0 , 5696.0 , 64.0 , 6592.0 , 10368.0 , 7424.0 , 12608.0 , 1.93014100527 , 

122.0 , 0.0 , 9472.0 , 10560.0 , 5760.0 , 64.0 , 6080.0 , 10368.0 , 7424.0 , 12608.0 , 1.93802122592 , 

123.0 , 0.0 , 9408.0 , 10496.0 , 5568.0 , 64.0 , 4928.0 , 10304.0 , 6912.0 , 12352.0 , 1.94580144656 , 

124.0 , 0.0 , 9344.0 , 10496.0 , 5440.0 , 64.0 , 4544.0 , 10368.0 , 6464.0 , 11904.0 , 1.95358166721 , 

125.0 , 0.0 , 9088.0 , 10432.0 , 5568.0 , 64.0 , 4160.0 , 10368.0 , 6144.0 , 11584.0 , 1.96136188786 , 

126.0 , 0.0 , 8960.0 , 10432.0 , 5504.0 , 64.0 , 3840.0 , 10368.0 , 6144.0 , 11584.0 , 1.9691421085 , 

127.0 , 0.0 , 8896.0 , 10368.0 , 5760.0 , 192.0 , 3136.0 , 10432.0 , 5760.0 , 11072.0 , 1.97692232915 , 

128.0 , 0.0 , 8832.0 , 10272.0 , 5760.0 , 384.0 , 2944.0 , 10432.0 , 5664.0 , 10784.0 , 1.98480254979 , 

0.0 , 0.0 , 8768.0 , 10176.0 , 5760.0 , 576.0 , 2752.0 , 10432.0 , 5568.0 , 10496.0 , 1.99258277044 , 

1.0 , 0.0 , 8640.0 , 10048.0 , 5504.0 , 1600.0 , 1792.0 , 10432.0 , 5312.0 , 10048.0 , 2.00036299109 , 

2.0 , 0.0 , 8384.0 , 9792.0 , 5248.0 , 2112.0 , 1344.0 , 10496.0 , 5312.0 , 9536.0 , 2.00814321173 , 

3.0 , 192.0 , 8192.0 , 9664.0 , 5568.0 , 3456.0 , 384.0 , 10496.0 , 5312.0 , 9536.0 , 2.01592343238 , 

4.0 , 640.0 , 7872.0 , 9472.0 , 5632.0 , 3968.0 , 192.0 , 10496.0 , 5120.0 , 9088.0 , 2.02370365302 , 

5.0 , 1664.0 , 7744.0 , 9088.0 , 5568.0 , 4992.0 , 448.0 , 10560.0 , 5120.0 , 8640.0 , 2.03148387367 , 

6.0 , 2240.0 , 7616.0 , 8896.0 , 5120.0 , 5760.0 , 960.0 , 10624.0 , 5056.0 , 8320.0 , 2.03926409432 , 

7.0 , 3264.0 , 7552.0 , 8576.0 , 4672.0 , 6016.0 , 1088.0 , 10624.0 , 4992.0 , 8064.0 , 2.04704431496 , 

8.0 , 3776.0 , 7552.0 , 8448.0 , 4160.0 , 6208.0 , 1088.0 , 10624.0 , 4992.0 , 8064.0 , 2.05482453561 , 

9.0 , 4800.0 , 7552.0 , 8256.0 , 4288.0 , 6464.0 , 768.0 , 10560.0 , 5056.0 , 7808.0 , 2.06260475626 , 

10.0 , 5312.0 , 7616.0 , 8192.0 , 4480.0 , 6528.0 , 640.0 , 10560.0 , 5056.0 , 7616.0 , 2.0703849769 , 

11.0 , 6400.0 , 7616.0 , 8064.0 , 4992.0 , 6592.0 , 768.0 , 10560.0 , 5056.0 , 7488.0 , 2.07816519755 , 

12.0 , 6912.0 , 7616.0 , 8064.0 , 5120.0 , 6592.0 , 768.0 , 10560.0 , 5056.0 , 7488.0 , 2.08594541819 , 

13.0 , 7488.0 , 7552.0 , 8000.0 , 5184.0 , 6464.0 , 832.0 , 10496.0 , 5056.0 , 7424.0 , 2.09372563884 , 

14.0 , 8576.0 , 7488.0 , 7808.0 , 5120.0 , 6336.0 , 960.0 , 10432.0 , 4992.0 , 7424.0 , 2.10150585949 , 

15.0 , 9088.0 , 7424.0 , 7808.0 , 5056.0 , 6144.0 , 1472.0 , 10496.0 , 4992.0 , 7488.0 , 2.10928608013 , 

16.0 , 10112.0 , 7360.0 , 7680.0 , 4992.0 , 6144.0 , 1728.0 , 10496.0 , 4992.0 , 7488.0 , 2.11706630078 , 

17.0 , 10624.0 , 7424.0 , 7616.0 , 4992.0 , 5888.0 , 2240.0 , 10432.0 , 4992.0 , 7616.0 , 2.12484652143 , 

18.0 , 11456.0 , 7552.0 , 7552.0 , 4992.0 , 5696.0 , 2496.0 , 10432.0 , 4928.0 , 7744.0 , 2.13282674207 , 

19.0 , 11840.0 , 7616.0 , 7552.0 , 5056.0 , 5376.0 , 2944.0 , 10368.0 , 4928.0 , 7936.0 , 2.14080696272 , 

20.0 , 12544.0 , 7680.0 , 7488.0 , 4992.0 , 5248.0 , 3200.0 , 10368.0 , 4736.0 , 8192.0 , 2.14858718336 , 

21.0 , 12864.0 , 7744.0 , 7488.0 , 4800.0 , 4800.0 , 3648.0 , 10368.0 , 4800.0 , 8512.0 , 2.15636740401 , 

22.0 , 13120.0 , 7744.0 , 7552.0 , 4544.0 , 4416.0 , 4160.0 , 10304.0 , 4800.0 , 8512.0 , 2.16414762466 , 

23.0 , 13568.0 , 7680.0 , 7680.0 , 4352.0 , 4288.0 , 4416.0 , 10240.0 , 4928.0 , 8832.0 , 2.1719278453 , 

24.0 , 13696.0 , 7616.0 , 7744.0 , 4032.0 , 4032.0 , 5056.0 , 10304.0 , 4992.0 , 9088.0 , 2.17970806595 , 

25.0 , 13824.0 , 7488.0 , 7936.0 , 3840.0 , 3904.0 , 5888.0 , 10368.0 , 5056.0 , 9408.0 , 2.18748828659 , 

26.0 , 13824.0 , 7488.0 , 8000.0 , 3712.0 , 3968.0 , 6336.0 , 10368.0 , 5056.0 , 9408.0 , 2.19526850724 , 

27.0 , 13696.0 , 7488.0 , 8192.0 , 3520.0 , 4160.0 , 7040.0 , 10368.0 , 5184.0 , 9728.0 , 2.20304872789 , 

28.0 , 13632.0 , 7488.0 , 8320.0 , 3392.0 , 4224.0 , 7296.0 , 10368.0 , 5312.0 , 9984.0 , 2.21082894853 , 

29.0 , 13312.0 , 7616.0 , 8512.0 , 3328.0 , 4416.0 , 7744.0 , 10432.0 , 5376.0 , 10240.0 , 2.21860916918 , 

30.0 , 13184.0 , 7680.0 , 8576.0 , 3328.0 , 4672.0 , 7808.0 , 10432.0 , 5376.0 , 10240.0 , 2.22638938983 , 

31.0 , 13056.0 , 7808.0 , 8640.0 , 3328.0 , 4992.0 , 7936.0 , 10560.0 , 5568.0 , 10624.0 , 2.23416961047 , 

32.0 , 12736.0 , 7936.0 , 8832.0 , 3328.0 , 5120.0 , 8000.0 , 10560.0 , 5760.0 , 10816.0 , 2.24194983112 , 

33.0 , 12544.0 , 7936.0 , 8896.0 , 3392.0 , 5504.0 , 8320.0 , 10624.0 , 5952.0 , 10880.0 , 2.24993005176 , 

34.0 , 12032.0 , 7872.0 , 9088.0 , 3456.0 , 5824.0 , 8512.0 , 10688.0 , 6272.0 , 11136.0 , 2.25791027241 , 

35.0 , 11776.0 , 7872.0 , 9152.0 , 3968.0 , 6272.0 , 8768.0 , 10688.0 , 6272.0 , 11136.0 , 2.26589049306 , 

36.0 , 11264.0 , 7872.0 , 9216.0 , 4288.0 , 6592.0 , 8832.0 , 10816.0 , 6144.0 , 11328.0 , 2.2736707137 , 

37.0 , 11008.0 , 7872.0 , 9216.0 , 4736.0 , 6976.0 , 8704.0 , 10880.0 , 6400.0 , 11392.0 , 2.28145093435 , 

38.0 , 10816.0 , 7936.0 , 9152.0 , 4928.0 , 7296.0 , 8448.0 , 10880.0 , 6528.0 , 11392.0 , 2.28923115499 , 

39.0 , 10432.0 , 7936.0 , 9024.0 , 5056.0 , 7424.0 , 8384.0 , 11008.0 , 6720.0 , 11520.0 , 2.29701137564 , 

40.0 , 10304.0 , 7872.0 , 8960.0 , 4864.0 , 7616.0 , 8320.0 , 11008.0 , 6720.0 , 11520.0 , 2.30479159629 , 

41.0 , 10112.0 , 7744.0 , 8832.0 , 4672.0 , 7744.0 , 8256.0 , 11008.0 , 6848.0 , 11584.0 , 2.31257181693 , 

42.0 , 9984.0 , 7616.0 , 8704.0 , 4608.0 , 7808.0 , 8256.0 , 11072.0 , 6848.0 , 11648.0 , 2.32055203758 , 

43.0 , 9856.0 , 7488.0 , 8576.0 , 4736.0 , 7936.0 , 8256.0 , 11072.0 , 6912.0 , 11648.0 , 2.32833225823 , 

44.0 , 9792.0 , 7424.0 , 8512.0 , 4800.0 , 8000.0 , 8256.0 , 11072.0 , 6912.0 , 11648.0 , 2.33611247887 , 

45.0 , 9664.0 , 7360.0 , 8320.0 , 4672.0 , 8000.0 , 8384.0 , 11136.0 , 6976.0 , 11648.0 , 2.34389269952 , 

46.0 , 9600.0 , 7296.0 , 8256.0 , 4544.0 , 8064.0 , 8384.0 , 11264.0 , 7104.0 , 11648.0 , 2.35167292016 , 

47.0 , 9600.0 , 7296.0 , 8192.0 , 4224.0 , 7936.0 , 8512.0 , 11328.0 , 7104.0 , 11648.0 , 2.35945314081 , 

48.0 , 9472.0 , 7232.0 , 8128.0 , 4160.0 , 7936.0 , 8512.0 , 11328.0 , 7104.0 , 11648.0 , 2.36723336146 , 

49.0 , 9408.0 , 7232.0 , 8128.0 , 4032.0 , 7936.0 , 8576.0 , 11328.0 , 7424.0 , 11648.0 , 2.3750135821 , 

50.0 , 9280.0 , 7232.0 , 8128.0 , 4096.0 , 7872.0 , 8576.0 , 11264.0 , 7232.0 , 11648.0 , 2.38279380275 , 

51.0 , 9280.0 , 7232.0 , 8128.0 , 4160.0 , 7936.0 , 8576.0 , 11392.0 , 7232.0 , 11584.0 , 2.3905740234 , 

52.0 , 9152.0 , 7296.0 , 8064.0 , 4224.0 , 7936.0 , 8576.0 , 11392.0 , 7552.0 , 11520.0 , 2.39835424404 , 

53.0 , 9152.0 , 7296.0 , 8064.0 , 4224.0 , 7936.0 , 8576.0 , 11392.0 , 6528.0 , 11520.0 , 2.40613446469 , 

54.0 , 9024.0 , 7360.0 , 8064.0 , 4224.0 , 8000.0 , 8640.0 , 11456.0 , 7168.0 , 11584.0 , 2.41391468533 , 

55.0 , 9024.0 , 7360.0 , 8064.0 , 4032.0 , 8000.0 , 8704.0 , 11520.0 , 7296.0 , 11520.0 , 2.42169490598 , 

56.0 , 8960.0 , 7424.0 , 8128.0 , 3968.0 , 8000.0 , 8768.0 , 11520.0 , 7360.0 , 11520.0 , 2.42947512663 , 

57.0 , 8832.0 , 7424.0 , 8128.0 , 4032.0 , 8064.0 , 8768.0 , 11584.0 , 7360.0 , 11456.0 , 2.43725534727 , 

58.0 , 8768.0 , 7488.0 , 8192.0 , 4096.0 , 8192.0 , 8768.0 , 11584.0 , 7360.0 , 11456.0 , 2.44503556792 , 

59.0 , 8704.0 , 7552.0 , 8192.0 , 4096.0 , 8256.0 , 8704.0 , 11648.0 , 7424.0 , 11456.0 , 2.45281578856 , 

60.0 , 8640.0 , 7616.0 , 8192.0 , 4096.0 , 8256.0 , 8704.0 , 11584.0 , 7488.0 , 11392.0 , 2.46059600921 , 

61.0 , 8576.0 , 7680.0 , 8192.0 , 4096.0 , 8320.0 , 8704.0 , 11648.0 , 7552.0 , 11392.0 , 2.46837622986 , 

62.0 , 8512.0 , 7744.0 , 8192.0 , 4032.0 , 8384.0 , 8704.0 , 11648.0 , 7552.0 , 11392.0 , 2.4761564505 , 

63.0 , 8512.0 , 7872.0 , 8192.0 , 3904.0 , 8448.0 , 8704.0 , 11648.0 , 7488.0 , 11392.0 , 2.48393667115 , 

64.0 , 8384.0 , 7872.0 , 8192.0 , 3840.0 , 8448.0 , 8768.0 , 11712.0 , 7488.0 , 11392.0 , 2.4919168918 , 

65.0 , 8320.0 , 7936.0 , 8192.0 , 3776.0 , 8512.0 , 8704.0 , 11712.0 , 7488.0 , 11392.0 , 2.49969711244 , 

66.0 , 8192.0 , 8064.0 , 8256.0 , 3776.0 , 8512.0 , 8704.0 , 11712.0 , 7424.0 , 11392.0 , 2.50767733309 , 

67.0 , 8128.0 , 8064.0 , 8192.0 , 3712.0 , 8576.0 , 8576.0 , 11776.0 , 7424.0 , 11328.0 , 2.51545755373 , 

68.0 , 8064.0 , 8192.0 , 8192.0 , 3648.0 , 8576.0 , 8512.0 , 11712.0 , 7616.0 , 11328.0 , 2.52323777438 , 

69.0 , 8000.0 , 8256.0 , 8192.0 , 3648.0 , 8576.0 , 8320.0 , 11776.0 , 7488.0 , 11392.0 , 2.53101799503 , 

70.0 , 7936.0 , 8320.0 , 8192.0 , 3648.0 , 8576.0 , 8192.0 , 11776.0 , 7424.0 , 11328.0 , 2.53879821567 , 

71.0 , 7936.0 , 8384.0 , 8192.0 , 3648.0 , 8576.0 , 8128.0 , 11712.0 , 7488.0 , 11392.0 , 2.54657843632 , 

72.0 , 7872.0 , 8448.0 , 8128.0 , 3648.0 , 8512.0 , 8000.0 , 11712.0 , 7488.0 , 11392.0 , 2.55435865696 , 

73.0 , 7872.0 , 8512.0 , 8128.0 , 3584.0 , 8448.0 , 7872.0 , 11712.0 , 7424.0 , 11392.0 , 2.56213887761 , 

74.0 , 7808.0 , 8576.0 , 8064.0 , 3456.0 , 8384.0 , 7680.0 , 11648.0 , 7424.0 , 11392.0 , 2.56991909826 , 

75.0 , 7808.0 , 8640.0 , 8064.0 , 3328.0 , 8320.0 , 7488.0 , 11712.0 , 7488.0 , 11392.0 , 2.5776993189 , 

76.0 , 7808.0 , 8704.0 , 8064.0 , 3328.0 , 8256.0 , 7360.0 , 11712.0 , 7488.0 , 11392.0 , 2.58547953955 , 

77.0 , 7808.0 , 8768.0 , 8000.0 , 3264.0 , 8192.0 , 7104.0 , 11648.0 , 7360.0 , 11328.0 , 2.5932597602 , 

78.0 , 7808.0 , 8832.0 , 8000.0 , 3264.0 , 8128.0 , 6976.0 , 11648.0 , 7360.0 , 11392.0 , 2.60103998084 , 

79.0 , 7872.0 , 8832.0 , 8064.0 , 3264.0 , 8064.0 , 6784.0 , 11584.0 , 7296.0 , 11456.0 , 2.60882020149 , 

80.0 , 7872.0 , 8832.0 , 8064.0 , 3264.0 , 8128.0 , 6720.0 , 11584.0 , 7296.0 , 11456.0 , 2.61680042213 , 

81.0 , 7936.0 , 8832.0 , 8064.0 , 3328.0 , 8064.0 , 6656.0 , 11648.0 , 7360.0 , 11456.0 , 2.62458064278 , 

82.0 , 7936.0 , 8768.0 , 8128.0 , 3392.0 , 8000.0 , 6592.0 , 11648.0 , 7360.0 , 11520.0 , 2.63256086343 , 

83.0 , 8000.0 , 8768.0 , 8128.0 , 3456.0 , 8064.0 , 6528.0 , 11520.0 , 7360.0 , 11456.0 , 2.64034108407 , 

84.0 , 8064.0 , 8704.0 , 8192.0 , 3520.0 , 8064.0 , 6528.0 , 11584.0 , 7424.0 , 11456.0 , 2.64812130472 , 

85.0 , 8064.0 , 8640.0 , 8256.0 , 3520.0 , 8064.0 , 6464.0 , 11584.0 , 7424.0 , 11456.0 , 2.65590152537 , 

86.0 , 8128.0 , 8576.0 , 8256.0 , 3584.0 , 8128.0 , 6400.0 , 11456.0 , 7616.0 , 11520.0 , 2.66368174601 , 

87.0 , 8128.0 , 8512.0 , 8320.0 , 3584.0 , 8128.0 , 6464.0 , 11584.0 , 7360.0 , 11520.0 , 2.67146196666 , 

88.0 , 8192.0 , 8448.0 , 8320.0 , 3712.0 , 8192.0 , 6464.0 , 11520.0 , 7360.0 , 11520.0 , 2.6794421873 , 

89.0 , 8192.0 , 8448.0 , 8384.0 , 3712.0 , 8256.0 , 6464.0 , 11520.0 , 7296.0 , 11520.0 , 2.68722240795 , 

90.0 , 8256.0 , 8448.0 , 8384.0 , 3776.0 , 8320.0 , 6528.0 , 11520.0 , 7296.0 , 11520.0 , 2.6952026286 , 

91.0 , 8256.0 , 8384.0 , 8384.0 , 3840.0 , 8384.0 , 6528.0 , 11520.0 , 7360.0 , 11520.0 , 2.70298284924 , 

92.0 , 8320.0 , 8384.0 , 8384.0 , 3840.0 , 8320.0 , 6528.0 , 11520.0 , 7360.0 , 11520.0 , 2.71096306989 , 

93.0 , 8384.0 , 8320.0 , 8384.0 , 3968.0 , 8384.0 , 6528.0 , 11520.0 , 7424.0 , 11584.0 , 2.71874329053 , 

94.0 , 8384.0 , 8320.0 , 8384.0 , 3968.0 , 8448.0 , 6592.0 , 11520.0 , 7424.0 , 11584.0 , 2.72652351118 , 

95.0 , 8448.0 , 8320.0 , 8320.0 , 4032.0 , 8384.0 , 6656.0 , 11456.0 , 7424.0 , 11584.0 , 2.73430373183 , 

96.0 , 8448.0 , 8320.0 , 8320.0 , 4032.0 , 8448.0 , 6720.0 , 11584.0 , 7360.0 , 11520.0 , 2.74228395247 , 

97.0 , 8448.0 , 8320.0 , 8320.0 , 3968.0 , 8448.0 , 6848.0 , 11584.0 , 7488.0 , 11520.0 , 2.75026417312 , 

98.0 , 8512.0 , 8320.0 , 8320.0 , 3968.0 , 8448.0 , 6912.0 , 11584.0 , 7488.0 , 11520.0 , 2.75804439377 , 

99.0 , 8512.0 , 8256.0 , 8320.0 , 3968.0 , 8448.0 , 6976.0 , 11520.0 , 7808.0 , 11648.0 , 2.76582461441 , 

100.0 , 8512.0 , 8320.0 , 8256.0 , 3968.0 , 8448.0 , 7040.0 , 11520.0 , 7488.0 , 11584.0 , 2.77360483506 , 

101.0 , 8512.0 , 8320.0 , 8256.0 , 3904.0 , 8448.0 , 7104.0 , 11520.0 , 7424.0 , 11648.0 , 2.7813850557 , 

102.0 , 8512.0 , 8320.0 , 8256.0 , 3904.0 , 8384.0 , 7104.0 , 11520.0 , 7488.0 , 11648.0 , 2.78916527635 , 

103.0 , 8512.0 , 8320.0 , 8256.0 , 3840.0 , 8448.0 , 7168.0 , 11584.0 , 7616.0 , 11648.0 , 2.796945497 , 

104.0 , 8448.0 , 8384.0 , 8256.0 , 3776.0 , 8448.0 , 7168.0 , 11584.0 , 7616.0 , 11648.0 , 2.80492571764 , 

105.0 , 8448.0 , 8384.0 , 8256.0 , 3776.0 , 8384.0 , 7168.0 , 11584.0 , 7552.0 , 11648.0 , 2.81270593829 , 

106.0 , 8448.0 , 8384.0 , 8256.0 , 3776.0 , 8384.0 , 7168.0 , 11456.0 , 7552.0 , 11712.0 , 2.82068615894 , 

107.0 , 8448.0 , 8384.0 , 8256.0 , 3712.0 , 8384.0 , 7168.0 , 11520.0 , 7808.0 , 11648.0 , 2.82846637958 , 

108.0 , 8384.0 , 8384.0 , 8256.0 , 3712.0 , 8384.0 , 7232.0 , 11520.0 , 7808.0 , 11648.0 , 2.83644660023 , 

109.0 , 8384.0 , 8448.0 , 8256.0 , 3712.0 , 8384.0 , 7232.0 , 11520.0 , 7552.0 , 11712.0 , 2.84422682087 , 

110.0 , 8320.0 , 8448.0 , 8256.0 , 3712.0 , 8384.0 , 7168.0 , 11520.0 , 7616.0 , 11648.0 , 2.85220704152 , 

111.0 , 8320.0 , 8448.0 , 8256.0 , 3712.0 , 8448.0 , 7168.0 , 11520.0 , 7616.0 , 11712.0 , 2.85998726217 , 

112.0 , 8256.0 , 8448.0 , 8256.0 , 3776.0 , 8448.0 , 7168.0 , 11520.0 , 7616.0 , 11712.0 , 2.86796748281 , 

113.0 , 8256.0 , 8448.0 , 8256.0 , 3776.0 , 8448.0 , 7104.0 , 11456.0 , 7616.0 , 11712.0 , 2.87574770346 , 

114.0 , 8256.0 , 8448.0 , 8256.0 , 3776.0 , 8448.0 , 7104.0 , 11520.0 , 7616.0 , 11712.0 , 2.8835279241 , 

115.0 , 8192.0 , 8448.0 , 8256.0 , 3840.0 , 8512.0 , 7040.0 , 11456.0 , 7616.0 , 11712.0 , 2.89130814475 , 

116.0 , 8192.0 , 8448.0 , 8256.0 , 3776.0 , 8512.0 , 7040.0 , 11520.0 , 7808.0 , 11776.0 , 2.8990883654 , 

117.0 , 8192.0 , 8448.0 , 8256.0 , 3840.0 , 8576.0 , 6976.0 , 11520.0 , 7808.0 , 11776.0 , 2.90686858604 , 

118.0 , 8192.0 , 8384.0 , 8256.0 , 3840.0 , 8576.0 , 6976.0 , 11456.0 , 7616.0 , 11776.0 , 2.91464880669 , 

119.0 , 8192.0 , 8384.0 , 8192.0 , 3840.0 , 8576.0 , 6976.0 , 11520.0 , 7616.0 , 11712.0 , 2.92242902734 , 

120.0 , 8128.0 , 8320.0 , 8192.0 , 3840.0 , 8576.0 , 6976.0 , 11456.0 , 7616.0 , 11776.0 , 2.93040924798 , 

121.0 , 8128.0 , 8384.0 , 8192.0 , 3840.0 , 8576.0 , 7040.0 , 11520.0 , 7616.0 , 11776.0 , 2.93818946863 , 

122.0 , 8128.0 , 8320.0 , 8128.0 , 3776.0 , 8576.0 , 7040.0 , 11520.0 , 7616.0 , 11776.0 , 2.94616968927 , 

123.0 , 8128.0 , 8320.0 , 8128.0 , 3840.0 , 8576.0 , 7040.0 , 11456.0 , 7616.0 , 11776.0 , 2.95394990992 , 

124.0 , 8128.0 , 8320.0 , 8128.0 , 3776.0 , 8576.0 , 7040.0 , 11456.0 , 7680.0 , 11776.0 , 2.96173013057 , 

125.0 , 8128.0 , 8320.0 , 8128.0 , 3840.0 , 8512.0 , 7040.0 , 11520.0 , 7424.0 , 11712.0 , 2.96951035121 , 

126.0 , 8128.0 , 8320.0 , 8128.0 , 3840.0 , 8576.0 , 7040.0 , 11520.0 , 7424.0 , 11712.0 , 2.97729057186 , 

127.0 , 8128.0 , 8320.0 , 8128.0 , 3840.0 , 8576.0 , 7040.0 , 11456.0 , 7616.0 , 11776.0 , 2.9850707925 , 

128.0 , 8096.0 , 8288.0 , 8128.0 , 3872.0 , 8544.0 , 7040.0 , 11456.0 , 7648.0 , 11776.0 , 2.99295101315 , 

0.0 , 8064.0 , 8256.0 , 8128.0 , 3904.0 , 8512.0 , 7040.0 , 11456.0 , 7680.0 , 11776.0 , 3.0007312338 , 

1.0 , 8064.0 , 8256.0 , 8064.0 , 3840.0 , 8512.0 , 7104.0 , 11520.0 , 7616.0 , 11712.0 , 3.00851145444 , 

2.0 , 8064.0 , 8256.0 , 8064.0 , 3840.0 , 8512.0 , 7104.0 , 11520.0 , 7616.0 , 11712.0 , 3.01629167509 , 

3.0 , 8064.0 , 8256.0 , 8064.0 , 3840.0 , 8448.0 , 7168.0 , 11456.0 , 7424.0 , 11776.0 , 3.02407189574 , 

4.0 , 8064.0 , 8256.0 , 8064.0 , 3840.0 , 8512.0 , 7168.0 , 11456.0 , 7616.0 , 11712.0 , 3.03185211638 , 

5.0 , 8064.0 , 8256.0 , 8064.0 , 3840.0 , 8448.0 , 7232.0 , 11456.0 , 7616.0 , 11712.0 , 3.03963233703 , 

6.0 , 8064.0 , 8320.0 , 8064.0 , 3840.0 , 8448.0 , 7232.0 , 11456.0 , 7552.0 , 11712.0 , 3.04741255767 , 

7.0 , 8064.0 , 8320.0 , 8000.0 , 3776.0 , 8448.0 , 7360.0 , 11520.0 , 7296.0 , 11840.0 , 3.05519277832 , 

8.0 , 8000.0 , 8320.0 , 8000.0 , 3776.0 , 8384.0 , 7424.0 , 11520.0 , 7296.0 , 11840.0 , 3.06297299897 , 

9.0 , 7936.0 , 8320.0 , 8000.0 , 3776.0 , 8384.0 , 7424.0 , 11392.0 , 7552.0 , 11712.0 , 3.07075321961 , 

10.0 , 7936.0 , 8384.0 , 8000.0 , 3776.0 , 8320.0 , 7424.0 , 11456.0 , 7488.0 , 11712.0 , 3.07853344026 , 

11.0 , 7872.0 , 8384.0 , 8000.0 , 3840.0 , 8320.0 , 7360.0 , 11456.0 , 7680.0 , 11712.0 , 3.08631366091 , 

12.0 , 7872.0 , 8384.0 , 8000.0 , 3776.0 , 8320.0 , 7296.0 , 11456.0 , 7680.0 , 11712.0 , 3.09409388155 , 

13.0 , 7872.0 , 8448.0 , 8000.0 , 3840.0 , 8256.0 , 7232.0 , 11456.0 , 7488.0 , 11712.0 , 3.1018741022 , 

14.0 , 7808.0 , 8448.0 , 8000.0 , 3840.0 , 8256.0 , 7168.0 , 11456.0 , 7488.0 , 11776.0 , 3.10965432284 , 

15.0 , 7808.0 , 8448.0 , 7936.0 , 3776.0 , 8192.0 , 7104.0 , 11392.0 , 7424.0 , 11712.0 , 3.11743454349 , 

16.0 , 7808.0 , 8448.0 , 7936.0 , 3776.0 , 8128.0 , 7040.0 , 11392.0 , 7424.0 , 11712.0 , 3.12521476414 , 

17.0 , 7808.0 , 8448.0 , 8000.0 , 3776.0 , 8128.0 , 6976.0 , 11392.0 , 7360.0 , 11712.0 , 3.13299498478 , 

18.0 , 7808.0 , 8384.0 , 8000.0 , 3776.0 , 8128.0 , 6976.0 , 11392.0 , 7360.0 , 11648.0 , 3.14077520543 , 

19.0 , 7808.0 , 8384.0 , 8000.0 , 3776.0 , 8064.0 , 6976.0 , 11392.0 , 7360.0 , 11712.0 , 3.14855542607 , 

20.0 , 7808.0 , 8384.0 , 8000.0 , 3776.0 , 8064.0 , 6912.0 , 11392.0 , 7360.0 , 11648.0 , 3.15633564672 , 

21.0 , 7808.0 , 8384.0 , 8064.0 , 3776.0 , 8064.0 , 6848.0 , 11392.0 , 7360.0 , 11648.0 , 3.16411586737 , 

22.0 , 7808.0 , 8384.0 , 8064.0 , 3776.0 , 8000.0 , 6848.0 , 11392.0 , 7680.0 , 11712.0 , 3.17189608801 , 

23.0 , 7872.0 , 8320.0 , 8064.0 , 3776.0 , 8064.0 , 6784.0 , 11392.0 , 7296.0 , 11712.0 , 3.17967630866 , 

24.0 , 7872.0 , 8320.0 , 8064.0 , 3776.0 , 8064.0 , 6720.0 , 11264.0 , 7232.0 , 11648.0 , 3.18745652931 , 

25.0 , 7872.0 , 8320.0 , 8128.0 , 3776.0 , 8064.0 , 6720.0 , 11328.0 , 7232.0 , 11648.0 , 3.19523674995 , 

26.0 , 7936.0 , 8320.0 , 8128.0 , 3776.0 , 8064.0 , 6720.0 , 11328.0 , 7232.0 , 11648.0 , 3.2030169706 , 

27.0 , 8000.0 , 8320.0 , 8128.0 , 3776.0 , 8064.0 , 6720.0 , 11328.0 , 7168.0 , 11648.0 , 3.21079719124 , 

28.0 , 8000.0 , 8320.0 , 8128.0 , 3712.0 , 8064.0 , 6784.0 , 11328.0 , 7296.0 , 11712.0 , 3.21857741189 , 

29.0 , 8064.0 , 8320.0 , 8128.0 , 3712.0 , 8064.0 , 6784.0 , 11328.0 , 7232.0 , 11648.0 , 3.22635763254 , 

30.0 , 8064.0 , 8320.0 , 8192.0 , 3712.0 , 8064.0 , 6784.0 , 11328.0 , 7232.0 , 11648.0 , 3.23413785318 , 

31.0 , 8128.0 , 8320.0 , 8192.0 , 3712.0 , 8064.0 , 6784.0 , 11328.0 , 7296.0 , 11712.0 , 3.24191807383 , 

32.0 , 8128.0 , 8320.0 , 8192.0 , 3712.0 , 8064.0 , 6784.0 , 11392.0 , 7232.0 , 11648.0 , 3.24989829447 , 

33.0 , 8192.0 , 8320.0 , 8192.0 , 3776.0 , 8064.0 , 6784.0 , 11328.0 , 7232.0 , 11712.0 , 3.25767851512 , 

34.0 , 8192.0 , 8320.0 , 8192.0 , 3776.0 , 8064.0 , 6784.0 , 11328.0 , 7232.0 , 11712.0 , 3.26565873577 , 

35.0 , 8256.0 , 8320.0 , 8256.0 , 3840.0 , 8064.0 , 6784.0 , 11328.0 , 7296.0 , 11648.0 , 3.27343895641 , 

36.0 , 8256.0 , 8320.0 , 8256.0 , 3840.0 , 8128.0 , 6784.0 , 11328.0 , 7296.0 , 11712.0 , 3.28121917706 , 

37.0 , 8256.0 , 8320.0 , 8256.0 , 3776.0 , 8128.0 , 6848.0 , 11264.0 , 7296.0 , 11712.0 , 3.28899939771 , 

38.0 , 8320.0 , 8320.0 , 8256.0 , 3776.0 , 8128.0 , 6848.0 , 11328.0 , 7232.0 , 11712.0 , 3.29677961835 , 

39.0 , 8320.0 , 8320.0 , 8256.0 , 3712.0 , 8128.0 , 6912.0 , 11328.0 , 7424.0 , 11712.0 , 3.304559839 , 

40.0 , 8384.0 , 8384.0 , 8256.0 , 3776.0 , 8128.0 , 6976.0 , 11328.0 , 7424.0 , 11712.0 , 3.31234005964 , 

41.0 , 8384.0 , 8384.0 , 8256.0 , 3776.0 , 8128.0 , 6976.0 , 11328.0 , 7296.0 , 11648.0 , 3.32012028029 , 

42.0 , 8384.0 , 8384.0 , 8256.0 , 3840.0 , 8128.0 , 6848.0 , 11328.0 , 7296.0 , 11776.0 , 3.32790050094 , 

43.0 , 8384.0 , 8384.0 , 8256.0 , 3840.0 , 8128.0 , 6848.0 , 11328.0 , 7296.0 , 11712.0 , 3.33568072158 , 

44.0 , 8384.0 , 8384.0 , 8256.0 , 3776.0 , 8128.0 , 6848.0 , 11328.0 , 7296.0 , 11712.0 , 3.34346094223 , 

45.0 , 8384.0 , 8384.0 , 8256.0 , 3776.0 , 8128.0 , 6912.0 , 11328.0 , 7360.0 , 11776.0 , 3.35124116288 , 

46.0 , 8384.0 , 8384.0 , 8256.0 , 3776.0 , 8128.0 , 6912.0 , 11328.0 , 7296.0 , 11712.0 , 3.35922138352 , 

47.0 , 8384.0 , 8384.0 , 8256.0 , 3776.0 , 8192.0 , 6912.0 , 11328.0 , 7360.0 , 11776.0 , 3.36720160417 , 

48.0 , 8384.0 , 8384.0 , 8256.0 , 3840.0 , 8128.0 , 6912.0 , 11328.0 , 7360.0 , 11776.0 , 3.37498182481 , 

49.0 , 8384.0 , 8320.0 , 8256.0 , 3840.0 , 8128.0 , 6848.0 , 11264.0 , 7424.0 , 11776.0 , 3.38276204546 , 

50.0 , 8384.0 , 8320.0 , 8256.0 , 3840.0 , 8128.0 , 6912.0 , 11328.0 , 7424.0 , 11776.0 , 3.39054226611 , 

51.0 , 8384.0 , 8320.0 , 8256.0 , 3840.0 , 8128.0 , 6912.0 , 11328.0 , 7424.0 , 11776.0 , 3.39832248675 , 

52.0 , 8384.0 , 8320.0 , 8256.0 , 3776.0 , 8192.0 , 6912.0 , 11328.0 , 7424.0 , 11840.0 , 3.4061027074 , 

53.0 , 8384.0 , 8384.0 , 8256.0 , 3776.0 , 8192.0 , 6976.0 , 11328.0 , 7424.0 , 11840.0 , 3.41388292804 , 

54.0 , 8384.0 , 8384.0 , 8256.0 , 3776.0 , 8192.0 , 6976.0 , 11328.0 , 7232.0 , 11776.0 , 3.42186314869 , 

55.0 , 8384.0 , 8384.0 , 8256.0 , 3840.0 , 8192.0 , 6976.0 , 11264.0 , 7424.0 , 11840.0 , 3.42964336934 , 

56.0 , 8384.0 , 8384.0 , 8256.0 , 3904.0 , 8192.0 , 6848.0 , 11392.0 , 7424.0 , 11840.0 , 3.43762358998 , 

57.0 , 8384.0 , 8384.0 , 8256.0 , 3904.0 , 8192.0 , 6848.0 , 11328.0 , 7488.0 , 11840.0 , 3.44560381063 , 

58.0 , 8320.0 , 8384.0 , 8256.0 , 3840.0 , 8192.0 , 6848.0 , 11328.0 , 7488.0 , 11840.0 , 3.45348403128 , 

59.0 , 8320.0 , 8320.0 , 8256.0 , 3776.0 , 8256.0 , 6912.0 , 11328.0 , 7488.0 , 11840.0 , 3.46126425192 , 

60.0 , 8320.0 , 8320.0 , 8256.0 , 3776.0 , 8192.0 , 6976.0 , 11264.0 , 7488.0 , 11840.0 , 3.46904447257 , 

61.0 , 8320.0 , 8320.0 , 8256.0 , 3776.0 , 8256.0 , 6976.0 , 11328.0 , 7488.0 , 11840.0 , 3.47682469321 , 

62.0 , 8320.0 , 8320.0 , 8320.0 , 3776.0 , 8256.0 , 6976.0 , 11328.0 , 7488.0 , 11840.0 , 3.48460491386 , 

63.0 , 8256.0 , 8320.0 , 8320.0 , 3776.0 , 8256.0 , 6976.0 , 11328.0 , 7488.0 , 11904.0 , 3.49238513451 , 

64.0 , 8256.0 , 8320.0 , 8320.0 , 3776.0 , 8256.0 , 6976.0 , 11392.0 , 7552.0 , 11840.0 , 3.50016535515 , 

65.0 , 8256.0 , 8320.0 , 8320.0 , 3840.0 , 8256.0 , 6976.0 , 11328.0 , 7488.0 , 11904.0 , 3.5079455758 , 

66.0 , 8256.0 , 8320.0 , 8320.0 , 3840.0 , 8256.0 , 6976.0 , 11328.0 , 7488.0 , 11904.0 , 3.51572579644 , 

67.0 , 8192.0 , 8320.0 , 8320.0 , 3776.0 , 8320.0 , 6976.0 , 11328.0 , 7552.0 , 11840.0 , 3.52350601709 , 

68.0 , 8192.0 , 8320.0 , 8320.0 , 3776.0 , 8320.0 , 6976.0 , 11264.0 , 7552.0 , 11840.0 , 3.53128623774 , 

69.0 , 8192.0 , 8320.0 , 8320.0 , 3776.0 , 8320.0 , 6912.0 , 11328.0 , 7552.0 , 11840.0 , 3.53906645838 , 

70.0 , 8192.0 , 8320.0 , 8320.0 , 3840.0 , 8384.0 , 6912.0 , 11328.0 , 7360.0 , 11904.0 , 3.54704667903 , 

71.0 , 8192.0 , 8320.0 , 8320.0 , 3904.0 , 8384.0 , 6912.0 , 11328.0 , 7936.0 , 11904.0 , 3.55482689968 , 

72.0 , 8192.0 , 8320.0 , 8320.0 , 3904.0 , 8448.0 , 6912.0 , 11392.0 , 7936.0 , 11904.0 , 3.56280712032 , 

73.0 , 8192.0 , 8320.0 , 8256.0 , 3840.0 , 8384.0 , 6912.0 , 11328.0 , 7552.0 , 11904.0 , 3.57058734097 , 

74.0 , 8192.0 , 8320.0 , 8256.0 , 3840.0 , 8384.0 , 6976.0 , 11328.0 , 7552.0 , 11840.0 , 3.57836756161 , 

75.0 , 8192.0 , 8320.0 , 8256.0 , 3840.0 , 8384.0 , 6976.0 , 11328.0 , 7552.0 , 11904.0 , 3.58614778226 , 

76.0 , 8128.0 , 8320.0 , 8256.0 , 3840.0 , 8448.0 , 6976.0 , 11328.0 , 7552.0 , 11904.0 , 3.59392800291 , 

77.0 , 8128.0 , 8320.0 , 8256.0 , 3776.0 , 8448.0 , 7040.0 , 11328.0 , 7616.0 , 11840.0 , 3.60170822355 , 

78.0 , 8128.0 , 8320.0 , 8320.0 , 3776.0 , 8448.0 , 7040.0 , 11392.0 , 7616.0 , 11904.0 , 3.6096884442 , 

79.0 , 8128.0 , 8320.0 , 8320.0 , 3776.0 , 8448.0 , 7040.0 , 11392.0 , 7552.0 , 11840.0 , 3.61746866485 , 

80.0 , 8128.0 , 8320.0 , 8320.0 , 3776.0 , 8448.0 , 7040.0 , 11392.0 , 7552.0 , 11840.0 , 3.62544888549 , 

81.0 , 8064.0 , 8320.0 , 8320.0 , 3840.0 , 8448.0 , 7040.0 , 11328.0 , 7616.0 , 11840.0 , 3.63322910614 , 

82.0 , 8064.0 , 8320.0 , 8320.0 , 3840.0 , 8512.0 , 7040.0 , 11392.0 , 7616.0 , 11904.0 , 3.64100932678 , 

83.0 , 8064.0 , 8320.0 , 8320.0 , 3904.0 , 8512.0 , 7040.0 , 11392.0 , 7552.0 , 11904.0 , 3.64878954743 , 

84.0 , 8064.0 , 8320.0 , 8320.0 , 3904.0 , 8512.0 , 6976.0 , 11328.0 , 7680.0 , 11904.0 , 3.65656976808 , 

85.0 , 8064.0 , 8384.0 , 8320.0 , 3904.0 , 8512.0 , 6976.0 , 11328.0 , 7680.0 , 11904.0 , 3.66434998872 , 

86.0 , 8064.0 , 8384.0 , 8256.0 , 3904.0 , 8448.0 , 6976.0 , 11328.0 , 7744.0 , 11840.0 , 3.67213020937 , 

87.0 , 8064.0 , 8384.0 , 8256.0 , 3904.0 , 8512.0 , 6976.0 , 11328.0 , 7616.0 , 11840.0 , 3.67991043001 , 

88.0 , 8000.0 , 8384.0 , 8256.0 , 3904.0 , 8512.0 , 6976.0 , 11328.0 , 7616.0 , 11840.0 , 3.68769065066 , 

89.0 , 8000.0 , 8384.0 , 8256.0 , 3904.0 , 8512.0 , 6976.0 , 11328.0 , 7552.0 , 11840.0 , 3.69547087131 , 

90.0 , 8000.0 , 8384.0 , 8256.0 , 3904.0 , 8512.0 , 6912.0 , 11328.0 , 7552.0 , 11840.0 , 3.70345109195 , 

91.0 , 8000.0 , 8320.0 , 8256.0 , 3904.0 , 8512.0 , 6912.0 , 11328.0 , 7616.0 , 11904.0 , 3.7112313126 , 

92.0 , 8000.0 , 8320.0 , 8256.0 , 3904.0 , 8512.0 , 6912.0 , 11328.0 , 7616.0 , 11904.0 , 3.71901153325 , 

93.0 , 8000.0 , 8320.0 , 8256.0 , 3904.0 , 8512.0 , 6912.0 , 11328.0 , 7488.0 , 11840.0 , 3.72679175389 , 

94.0 , 7936.0 , 8320.0 , 8256.0 , 3904.0 , 8512.0 , 6912.0 , 11328.0 , 7488.0 , 11840.0 , 3.73477197454 , 

95.0 , 7936.0 , 8320.0 , 8256.0 , 3904.0 , 8512.0 , 6912.0 , 11392.0 , 7552.0 , 11776.0 , 3.74255219518 , 

96.0 , 7936.0 , 8384.0 , 8256.0 , 3904.0 , 8512.0 , 6912.0 , 11264.0 , 7552.0 , 11840.0 , 3.75053241583 , 

97.0 , 7936.0 , 8320.0 , 8256.0 , 3904.0 , 8512.0 , 6912.0 , 11328.0 , 7552.0 , 11840.0 , 3.75831263648 , 

98.0 , 7936.0 , 8320.0 , 8192.0 , 3904.0 , 8512.0 , 6848.0 , 11328.0 , 7552.0 , 11840.0 , 3.76629285712 , 

99.0 , 7872.0 , 8320.0 , 8192.0 , 3904.0 , 8512.0 , 6784.0 , 11392.0 , 7744.0 , 11840.0 , 3.77407307777 , 

100.0 , 7872.0 , 8320.0 , 8192.0 , 3904.0 , 8512.0 , 6784.0 , 11328.0 , 7552.0 , 11904.0 , 3.78185329841 , 

101.0 , 7872.0 , 8320.0 , 8192.0 , 3904.0 , 8512.0 , 6784.0 , 11392.0 , 7552.0 , 11776.0 , 3.78963351906 , 

102.0 , 7936.0 , 8320.0 , 8192.0 , 3840.0 , 8512.0 , 6784.0 , 11392.0 , 7872.0 , 11840.0 , 3.79761373971 , 

103.0 , 7936.0 , 8320.0 , 8192.0 , 3840.0 , 8512.0 , 6784.0 , 11392.0 , 7872.0 , 11840.0 , 3.80539396035 , 

104.0 , 7936.0 , 8320.0 , 8128.0 , 3840.0 , 8512.0 , 6784.0 , 11328.0 , 7616.0 , 11840.0 , 3.813174181 , 

105.0 , 7936.0 , 8320.0 , 8128.0 , 3840.0 , 8448.0 , 6848.0 , 11328.0 , 7488.0 , 11776.0 , 3.82095440165 , 

106.0 , 7936.0 , 8320.0 , 8128.0 , 3840.0 , 8448.0 , 6784.0 , 11328.0 , 7488.0 , 11840.0 , 3.82873462229 , 

107.0 , 7936.0 , 8320.0 , 8128.0 , 3840.0 , 8384.0 , 6784.0 , 11328.0 , 7424.0 , 11776.0 , 3.83651484294 , 

108.0 , 7936.0 , 8320.0 , 8128.0 , 3776.0 , 8448.0 , 6784.0 , 11328.0 , 7424.0 , 11776.0 , 3.84429506358 , 

109.0 , 7936.0 , 8320.0 , 8128.0 , 3776.0 , 8384.0 , 6784.0 , 11392.0 , 7424.0 , 11776.0 , 3.85207528423 , 

110.0 , 7936.0 , 8320.0 , 8128.0 , 3776.0 , 8384.0 , 6720.0 , 11328.0 , 7424.0 , 11776.0 , 3.86005550488 , 

111.0 , 7936.0 , 8320.0 , 8128.0 , 3840.0 , 8384.0 , 6720.0 , 11328.0 , 7424.0 , 11776.0 , 3.86783572552 , 

112.0 , 8000.0 , 8320.0 , 8128.0 , 3840.0 , 8384.0 , 6720.0 , 11328.0 , 7424.0 , 11776.0 , 3.87581594617 , 

113.0 , 8000.0 , 8320.0 , 8128.0 , 3840.0 , 8320.0 , 6656.0 , 11328.0 , 7360.0 , 11776.0 , 3.88359616682 , 

114.0 , 8000.0 , 8320.0 , 8128.0 , 3840.0 , 8384.0 , 6656.0 , 11328.0 , 7424.0 , 11840.0 , 3.89157638746 , 

115.0 , 8064.0 , 8320.0 , 8128.0 , 3776.0 , 8320.0 , 6656.0 , 11328.0 , 7424.0 , 11776.0 , 3.89935660811 , 

116.0 , 8064.0 , 8320.0 , 8128.0 , 3840.0 , 8320.0 , 6656.0 , 11328.0 , 7488.0 , 11776.0 , 3.90713682875 , 

117.0 , 8128.0 , 8320.0 , 8128.0 , 3840.0 , 8320.0 , 6656.0 , 11264.0 , 7488.0 , 11776.0 , 3.9149170494 , 

118.0 , 8128.0 , 8320.0 , 8128.0 , 3776.0 , 8256.0 , 6720.0 , 11328.0 , 7232.0 , 11840.0 , 3.92289727005 , 

119.0 , 8128.0 , 8320.0 , 8128.0 , 3776.0 , 8256.0 , 6720.0 , 11328.0 , 7360.0 , 11776.0 , 3.93067749069 , 

120.0 , 8192.0 , 8320.0 , 8128.0 , 3776.0 , 8256.0 , 6720.0 , 11328.0 , 7360.0 , 11776.0 , 3.93865771134 , 

121.0 , 8192.0 , 8320.0 , 8192.0 , 3776.0 , 8256.0 , 6720.0 , 11328.0 , 7104.0 , 11776.0 , 3.94643793198 , 

122.0 , 8192.0 , 8320.0 , 8192.0 , 3776.0 , 8256.0 , 6720.0 , 11328.0 , 7104.0 , 11776.0 , 3.95441815263 , 

123.0 , 8256.0 , 8320.0 , 8192.0 , 3776.0 , 8256.0 , 6720.0 , 11264.0 , 7424.0 , 11776.0 , 3.96219837328 , 

124.0 , 8256.0 , 8320.0 , 8192.0 , 3776.0 , 8256.0 , 6784.0 , 11328.0 , 7360.0 , 11840.0 , 3.97017859392 , 

125.0 , 8256.0 , 8320.0 , 8192.0 , 3840.0 , 8256.0 , 6720.0 , 11328.0 , 7424.0 , 11840.0 , 3.97815881457 , 

126.0 , 8256.0 , 8320.0 , 8192.0 , 3840.0 , 8256.0 , 6720.0 , 11328.0 , 7424.0 , 11840.0 , 3.98613903522 , 

127.0 , 8256.0 , 8320.0 , 8192.0 , 3904.0 , 8256.0 , 6720.0 , 11328.0 , 7360.0 , 11776.0 , 3.99391925586 , 

128.0 , 8288.0 , 8320.0 , 8192.0 , 3872.0 , 8256.0 , 6720.0 , 11296.0 , 7392.0 , 11776.0 , 4.00179947651 , 

0.0 , 8320.0 , 8320.0 , 8192.0 , 3840.0 , 8256.0 , 6720.0 , 11264.0 , 7424.0 , 11776.0 , 4.00957969715 , 

1.0 , 8320.0 , 8320.0 , 8192.0 , 3840.0 , 8256.0 , 6784.0 , 11328.0 , 7360.0 , 11840.0 , 4.0173599178 , 

2.0 , 8320.0 , 8320.0 , 8192.0 , 3840.0 , 8320.0 , 6784.0 , 11328.0 , 7360.0 , 11840.0 , 4.02514013845 , 

3.0 , 8320.0 , 8320.0 , 8192.0 , 3840.0 , 8256.0 , 6784.0 , 11328.0 , 7296.0 , 11776.0 , 4.03292035909 , 

4.0 , 8320.0 , 8320.0 , 8192.0 , 3840.0 , 8256.0 , 6784.0 , 11328.0 , 7424.0 , 11840.0 , 4.04070057974 , 

5.0 , 8320.0 , 8256.0 , 8192.0 , 3840.0 , 8256.0 , 6848.0 , 11328.0 , 7424.0 , 11776.0 , 4.04848080038 , 

6.0 , 8320.0 , 8256.0 , 8192.0 , 3840.0 , 8320.0 , 6848.0 , 11328.0 , 7360.0 , 11776.0 , 4.05646102103 , 

7.0 , 8320.0 , 8256.0 , 8256.0 , 3840.0 , 8320.0 , 6848.0 , 11328.0 , 7360.0 , 11776.0 , 4.06424124168 , 

8.0 , 8320.0 , 8256.0 , 8256.0 , 3840.0 , 8384.0 , 6848.0 , 11328.0 , 7552.0 , 11776.0 , 4.07202146232 , 

9.0 , 8320.0 , 8256.0 , 8256.0 , 3904.0 , 8384.0 , 6848.0 , 11264.0 , 7552.0 , 11840.0 , 4.07980168297 , 

10.0 , 8320.0 , 8256.0 , 8256.0 , 3904.0 , 8448.0 , 6848.0 , 11264.0 , 7488.0 , 11840.0 , 4.08758190362 , 

11.0 , 8320.0 , 8256.0 , 8256.0 , 3904.0 , 8448.0 , 6848.0 , 11328.0 , 7488.0 , 11840.0 , 4.09536212426 , 

12.0 , 8320.0 , 8256.0 , 8256.0 , 3904.0 , 8448.0 , 6848.0 , 11328.0 , 7488.0 , 11840.0 , 4.10314234491 , 

13.0 , 8320.0 , 8256.0 , 8256.0 , 3904.0 , 8448.0 , 6848.0 , 11328.0 , 7552.0 , 11840.0 , 4.11092256555 , 

14.0 , 8320.0 , 8256.0 , 8192.0 , 3904.0 , 8448.0 , 6848.0 , 11264.0 , 7488.0 , 11904.0 , 4.1187027862 , 

15.0 , 8320.0 , 8256.0 , 8192.0 , 3840.0 , 8448.0 , 6848.0 , 11328.0 , 7232.0 , 11840.0 , 4.12648300685 , 

16.0 , 8320.0 , 8256.0 , 8192.0 , 3840.0 , 8448.0 , 6912.0 , 11328.0 , 7232.0 , 11840.0 , 4.13426322749 , 

17.0 , 8320.0 , 8256.0 , 8192.0 , 3840.0 , 8448.0 , 6912.0 , 11328.0 , 7488.0 , 11840.0 , 4.14204344814 , 

18.0 , 8256.0 , 8256.0 , 8192.0 , 3840.0 , 8448.0 , 6848.0 , 11392.0 , 7488.0 , 11840.0 , 4.14982366879 , 

19.0 , 8256.0 , 8256.0 , 8192.0 , 3840.0 , 8448.0 , 6848.0 , 11328.0 , 7552.0 , 11904.0 , 4.15760388943 , 

20.0 , 8256.0 , 8320.0 , 8192.0 , 3840.0 , 8448.0 , 6848.0 , 11328.0 , 7552.0 , 11904.0 , 4.16558411008 , 

21.0 , 8256.0 , 8320.0 , 8192.0 , 3840.0 , 8448.0 , 6848.0 , 11264.0 , 7680.0 , 11840.0 , 4.17336433072 , 

22.0 , 8256.0 , 8320.0 , 8192.0 , 3904.0 , 8448.0 , 6848.0 , 11264.0 , 7552.0 , 11840.0 , 4.18114455137 , 

23.0 , 8256.0 , 8320.0 , 8192.0 , 3840.0 , 8384.0 , 6848.0 , 11328.0 , 7552.0 , 11840.0 , 4.18892477202 , 

24.0 , 8256.0 , 8320.0 , 8192.0 , 3840.0 , 8384.0 , 6848.0 , 11328.0 , 7552.0 , 11840.0 , 4.19670499266 , 

25.0 , 8256.0 , 8320.0 , 8192.0 , 3840.0 , 8384.0 , 6848.0 , 11328.0 , 7872.0 , 11904.0 , 4.20448521331 , 

26.0 , 8256.0 , 8320.0 , 8192.0 , 3840.0 , 8384.0 , 6848.0 , 11328.0 , 7872.0 , 11904.0 , 4.21226543395 , 

27.0 , 8256.0 , 8320.0 , 8192.0 , 3840.0 , 8384.0 , 6848.0 , 11328.0 , 7552.0 , 11904.0 , 4.2200456546 , 

28.0 , 8256.0 , 8320.0 , 8192.0 , 3840.0 , 8384.0 , 6848.0 , 11392.0 , 7616.0 , 11904.0 , 4.22782587525 , 

29.0 , 8256.0 , 8320.0 , 8192.0 , 3776.0 , 8384.0 , 6848.0 , 11328.0 , 7360.0 , 11904.0 , 4.23560609589 , 

30.0 , 8256.0 , 8320.0 , 8192.0 , 3776.0 , 8320.0 , 6848.0 , 11328.0 , 7360.0 , 11904.0 , 4.24338631654 , 

31.0 , 8256.0 , 8320.0 , 8192.0 , 3776.0 , 8320.0 , 6848.0 , 11328.0 , 7616.0 , 11904.0 , 4.25116653719 , 

32.0 , 8256.0 , 8320.0 , 8192.0 , 3712.0 , 8320.0 , 6848.0 , 11392.0 , 7552.0 , 11840.0 , 4.25894675783 , 

33.0 , 8320.0 , 8384.0 , 8192.0 , 3712.0 , 8256.0 , 6848.0 , 11264.0 , 7552.0 , 11904.0 , 4.26672697848 , 

34.0 , 8256.0 , 8384.0 , 8192.0 , 3648.0 , 8320.0 , 6848.0 , 11264.0 , 7552.0 , 11904.0 , 4.27450719912 , 

35.0 , 8256.0 , 8384.0 , 8192.0 , 3648.0 , 8256.0 , 6848.0 , 11328.0 , 7616.0 , 11968.0 , 4.28228741977 , 

36.0 , 8256.0 , 8384.0 , 8192.0 , 3712.0 , 8320.0 , 6848.0 , 11392.0 , 7616.0 , 11904.0 , 4.29026764042 , 

37.0 , 8256.0 , 8384.0 , 8192.0 , 3776.0 , 8256.0 , 6784.0 , 11264.0 , 7616.0 , 11904.0 , 4.29804786106 , 

38.0 , 8256.0 , 8384.0 , 8192.0 , 3776.0 , 8256.0 , 6784.0 , 11264.0 , 7680.0 , 11904.0 , 4.30582808171 , 

39.0 , 8256.0 , 8384.0 , 8192.0 , 3840.0 , 8256.0 , 6784.0 , 11264.0 , 7680.0 , 11904.0 , 4.31360830236 , 

40.0 , 8256.0 , 8384.0 , 8192.0 , 3776.0 , 8256.0 , 6784.0 , 11328.0 , 7680.0 , 11904.0 , 4.321588523 , 

41.0 , 8256.0 , 8320.0 , 8256.0 , 3776.0 , 8192.0 , 6784.0 , 11328.0 , 7616.0 , 11904.0 , 4.32936874365 , 

42.0 , 8256.0 , 8320.0 , 8256.0 , 3840.0 , 8256.0 , 6784.0 , 11328.0 , 7680.0 , 11904.0 , 4.33714896429 , 

43.0 , 8256.0 , 8320.0 , 8256.0 , 3840.0 , 8256.0 , 6784.0 , 11264.0 , 7616.0 , 11904.0 , 4.34492918494 , 

44.0 , 8256.0 , 8320.0 , 8256.0 , 3840.0 , 8256.0 , 6848.0 , 11264.0 , 7616.0 , 11904.0 , 4.35290940559 , 

45.0 , 8256.0 , 8320.0 , 8256.0 , 3904.0 , 8320.0 , 6848.0 , 11264.0 , 7680.0 , 11968.0 , 4.36068962623 , 

46.0 , 8256.0 , 8320.0 , 8256.0 , 3904.0 , 8320.0 , 6784.0 , 11328.0 , 7616.0 , 11968.0 , 4.36846984688 , 

47.0 , 8256.0 , 8320.0 , 8256.0 , 3904.0 , 8320.0 , 6784.0 , 11392.0 , 7680.0 , 11904.0 , 4.37625006752 , 

48.0 , 8256.0 , 8320.0 , 8256.0 , 3904.0 , 8320.0 , 6784.0 , 11392.0 , 7680.0 , 11904.0 , 4.38403028817 , 

49.0 , 8192.0 , 8256.0 , 8256.0 , 3904.0 , 8320.0 , 6720.0 , 11328.0 , 7616.0 , 11904.0 , 4.39181050882 , 

50.0 , 8192.0 , 8256.0 , 8256.0 , 3904.0 , 8384.0 , 6784.0 , 11328.0 , 7744.0 , 11968.0 , 4.39959072946 , 

51.0 , 8256.0 , 8256.0 , 8256.0 , 3904.0 , 8384.0 , 6784.0 , 11328.0 , 7680.0 , 11968.0 , 4.40737095011 , 

52.0 , 8256.0 , 8256.0 , 8256.0 , 3904.0 , 8384.0 , 6784.0 , 11328.0 , 7680.0 , 11968.0 , 4.41515117076 , 

53.0 , 8256.0 , 8256.0 , 8256.0 , 3840.0 , 8384.0 , 6784.0 , 11328.0 , 7616.0 , 11904.0 , 4.4229313914 , 

54.0 , 8192.0 , 8256.0 , 8256.0 , 3840.0 , 8384.0 , 6784.0 , 11328.0 , 7488.0 , 11968.0 , 4.43071161205 , 

55.0 , 8192.0 , 8192.0 , 8256.0 , 3840.0 , 8384.0 , 6848.0 , 11264.0 , 7744.0 , 11904.0 , 4.43849183269 , 

56.0 , 8192.0 , 8256.0 , 8256.0 , 3776.0 , 8384.0 , 6848.0 , 11328.0 , 7744.0 , 11968.0 , 4.44627205334 , 

57.0 , 8192.0 , 8256.0 , 8256.0 , 3840.0 , 8384.0 , 6848.0 , 11392.0 , 7616.0 , 11904.0 , 4.45405227399 , 

58.0 , 8192.0 , 8256.0 , 8256.0 , 3840.0 , 8384.0 , 6784.0 , 11392.0 , 7616.0 , 11904.0 , 4.46183249463 , 

59.0 , 8192.0 , 8256.0 , 8256.0 , 3840.0 , 8384.0 , 6784.0 , 11328.0 , 7744.0 , 11968.0 , 4.46961271528 , 

60.0 , 8192.0 , 8256.0 , 8256.0 , 3840.0 , 8384.0 , 6720.0 , 11328.0 , 7744.0 , 11968.0 , 4.47759293592 , 

61.0 , 8192.0 , 8192.0 , 8256.0 , 3904.0 , 8320.0 , 6656.0 , 11392.0 , 7744.0 , 11968.0 , 4.48537315657 , 

62.0 , 8192.0 , 8192.0 , 8256.0 , 3904.0 , 8256.0 , 6592.0 , 11392.0 , 7744.0 , 11968.0 , 4.49335337722 , 

63.0 , 8192.0 , 8192.0 , 8256.0 , 3904.0 , 8192.0 , 6528.0 , 11328.0 , 7744.0 , 11968.0 , 4.50113359786 , 

64.0 , 8256.0 , 8128.0 , 8256.0 , 3904.0 , 8128.0 , 6464.0 , 11392.0 , 7744.0 , 11968.0 , 4.50891381851 , 

65.0 , 8256.0 , 8128.0 , 8256.0 , 3712.0 , 8128.0 , 6208.0 , 11392.0 , 7808.0 , 11904.0 , 4.51669403916 , 

66.0 , 8256.0 , 8064.0 , 8256.0 , 3584.0 , 8128.0 , 6016.0 , 11392.0 , 7808.0 , 11904.0 , 4.5244742598 , 

67.0 , 8256.0 , 8000.0 , 8256.0 , 3328.0 , 8128.0 , 5696.0 , 11392.0 , 7808.0 , 11904.0 , 4.53225448045 , 

68.0 , 8320.0 , 7808.0 , 8384.0 , 3200.0 , 8128.0 , 5504.0 , 11456.0 , 7744.0 , 11904.0 , 4.54023470109 , 

69.0 , 8320.0 , 7744.0 , 8384.0 , 3072.0 , 8128.0 , 5376.0 , 11456.0 , 7744.0 , 11904.0 , 4.54801492174 , 

70.0 , 8320.0 , 7680.0 , 8448.0 , 3072.0 , 8192.0 , 5376.0 , 11456.0 , 8128.0 , 11904.0 , 4.55599514239 , 

71.0 , 8384.0 , 7616.0 , 8512.0 , 3264.0 , 8192.0 , 5312.0 , 11456.0 , 8128.0 , 11904.0 , 4.56377536303 , 

72.0 , 8448.0 , 7552.0 , 8576.0 , 3392.0 , 8256.0 , 5312.0 , 11584.0 , 8064.0 , 11840.0 , 4.57155558368 , 

73.0 , 8512.0 , 7424.0 , 8640.0 , 3584.0 , 8320.0 , 5312.0 , 11648.0 , 7936.0 , 11712.0 , 4.57933580433 , 

74.0 , 8512.0 , 7296.0 , 8640.0 , 3776.0 , 8384.0 , 5376.0 , 11584.0 , 7936.0 , 11712.0 , 4.58731602497 , 

75.0 , 8576.0 , 7104.0 , 8640.0 , 3776.0 , 8448.0 , 5504.0 , 11712.0 , 7936.0 , 11712.0 , 4.59509624562 , 

76.0 , 8640.0 , 7040.0 , 8640.0 , 3904.0 , 8576.0 , 5888.0 , 11712.0 , 7936.0 , 11712.0 , 4.60287646626 , 

77.0 , 8704.0 , 6912.0 , 8640.0 , 3904.0 , 8640.0 , 6336.0 , 11776.0 , 7936.0 , 11648.0 , 4.61065668691 , 

78.0 , 8704.0 , 6848.0 , 8640.0 , 4032.0 , 8704.0 , 6528.0 , 11776.0 , 8064.0 , 11520.0 , 4.61843690756 , 

79.0 , 8704.0 , 6848.0 , 8640.0 , 4160.0 , 8832.0 , 6848.0 , 11904.0 , 8064.0 , 11456.0 , 4.6262171282 , 

80.0 , 8768.0 , 6912.0 , 8640.0 , 4224.0 , 8896.0 , 7040.0 , 11904.0 , 8064.0 , 11456.0 , 4.63399734885 , 

81.0 , 8768.0 , 6976.0 , 8640.0 , 4480.0 , 8960.0 , 7488.0 , 11904.0 , 8128.0 , 11456.0 , 4.64177756949 , 

82.0 , 8832.0 , 7104.0 , 8512.0 , 4608.0 , 9024.0 , 7680.0 , 11968.0 , 8128.0 , 11392.0 , 4.64955779014 , 

83.0 , 8832.0 , 7168.0 , 8512.0 , 4736.0 , 9152.0 , 8192.0 , 12096.0 , 8192.0 , 11328.0 , 4.65733801079 , 

84.0 , 8832.0 , 7232.0 , 8384.0 , 4800.0 , 9216.0 , 8448.0 , 12096.0 , 8192.0 , 11328.0 , 4.66531823143 , 

85.0 , 8832.0 , 7296.0 , 8320.0 , 4800.0 , 9344.0 , 9024.0 , 12096.0 , 8256.0 , 11328.0 , 4.67329845208 , 

86.0 , 8832.0 , 7424.0 , 8128.0 , 4800.0 , 9408.0 , 9280.0 , 12160.0 , 8256.0 , 11200.0 , 4.68127867273 , 

87.0 , 8832.0 , 7488.0 , 8064.0 , 4608.0 , 9472.0 , 9984.0 , 12096.0 , 8320.0 , 11200.0 , 4.68905889337 , 

88.0 , 8832.0 , 7616.0 , 7936.0 , 4288.0 , 9408.0 , 10240.0 , 12160.0 , 8000.0 , 11136.0 , 4.69703911402 , 

89.0 , 8768.0 , 7872.0 , 7872.0 , 3776.0 , 9344.0 , 10880.0 , 12160.0 , 8192.0 , 11200.0 , 4.70481933466 , 

90.0 , 8704.0 , 8000.0 , 7872.0 , 3328.0 , 9152.0 , 11264.0 , 12288.0 , 8192.0 , 11200.0 , 4.71259955531 , 

91.0 , 8576.0 , 8320.0 , 7872.0 , 3072.0 , 9088.0 , 11392.0 , 12160.0 , 8320.0 , 11200.0 , 4.72037977596 , 

92.0 , 8512.0 , 8512.0 , 7872.0 , 3008.0 , 8960.0 , 11520.0 , 12160.0 , 8256.0 , 11200.0 , 4.7281599966 , 

93.0 , 8384.0 , 9024.0 , 7872.0 , 3328.0 , 9024.0 , 11392.0 , 12224.0 , 8320.0 , 11264.0 , 4.73594021725 , 

94.0 , 8384.0 , 9280.0 , 7936.0 , 3584.0 , 9088.0 , 11264.0 , 12224.0 , 8320.0 , 11264.0 , 4.74372043789 , 

95.0 , 8320.0 , 9728.0 , 7936.0 , 3840.0 , 9088.0 , 11008.0 , 12096.0 , 8192.0 , 11392.0 , 4.75150065854 , 

96.0 , 8320.0 , 9920.0 , 7936.0 , 3904.0 , 9024.0 , 10880.0 , 12032.0 , 8256.0 , 11456.0 , 4.75948087919 , 

97.0 , 8320.0 , 10112.0 , 7872.0 , 3968.0 , 9024.0 , 10816.0 , 11968.0 , 8256.0 , 11520.0 , 4.76746109983 , 

98.0 , 8256.0 , 10368.0 , 7808.0 , 3968.0 , 9024.0 , 10816.0 , 11968.0 , 8256.0 , 11520.0 , 4.77524132048 , 

99.0 , 8320.0 , 10560.0 , 7808.0 , 4224.0 , 8960.0 , 10624.0 , 11904.0 , 8256.0 , 11712.0 , 4.78302154113 , 

100.0 , 8320.0 , 10816.0 , 7744.0 , 4352.0 , 8896.0 , 10432.0 , 11712.0 , 8256.0 , 11776.0 , 4.79100176177 , 

101.0 , 8320.0 , 10944.0 , 7744.0 , 4608.0 , 8832.0 , 9984.0 , 11584.0 , 8256.0 , 11968.0 , 4.79878198242 , 

102.0 , 8320.0 , 11264.0 , 7744.0 , 4672.0 , 8768.0 , 9856.0 , 11520.0 , 8128.0 , 12160.0 , 4.80656220306 , 

103.0 , 8384.0 , 11392.0 , 7744.0 , 4736.0 , 8704.0 , 9856.0 , 11520.0 , 8128.0 , 12160.0 , 4.81434242371 , 

104.0 , 8384.0 , 11840.0 , 7744.0 , 4800.0 , 8640.0 , 9792.0 , 11264.0 , 8384.0 , 12288.0 , 4.82212264436 , 

105.0 , 8384.0 , 11968.0 , 7744.0 , 5184.0 , 8512.0 , 9600.0 , 11136.0 , 8192.0 , 12480.0 , 4.829902865 , 

106.0 , 8384.0 , 12160.0 , 7808.0 , 5760.0 , 8512.0 , 9152.0 , 10944.0 , 8192.0 , 12544.0 , 4.83768308565 , 

107.0 , 8384.0 , 12416.0 , 7808.0 , 6016.0 , 8576.0 , 8896.0 , 10624.0 , 8192.0 , 12736.0 , 4.8454633063 , 

108.0 , 8384.0 , 12480.0 , 7872.0 , 6528.0 , 8448.0 , 8256.0 , 10624.0 , 8192.0 , 12736.0 , 4.85344352694 , 

109.0 , 8384.0 , 12736.0 , 7936.0 , 6976.0 , 8512.0 , 7424.0 , 10432.0 , 8256.0 , 12928.0 , 4.86122374759 , 

110.0 , 8384.0 , 12864.0 , 7936.0 , 7744.0 , 8576.0 , 6848.0 , 10048.0 , 8192.0 , 13056.0 , 4.86920396823 , 

111.0 , 8384.0 , 12992.0 , 7936.0 , 7936.0 , 8640.0 , 5248.0 , 9664.0 , 8256.0 , 13184.0 , 4.87698418888 , 

112.0 , 8384.0 , 12928.0 , 7872.0 , 7808.0 , 8512.0 , 4288.0 , 9664.0 , 8256.0 , 13184.0 , 4.88496440953 , 

113.0 , 8384.0 , 12416.0 , 7872.0 , 6656.0 , 8384.0 , 2112.0 , 9344.0 , 8192.0 , 13248.0 , 4.89274463017 , 

114.0 , 8384.0 , 11968.0 , 7808.0 , 6144.0 , 8512.0 , 576.0 , 9152.0 , 8320.0 , 13312.0 , 4.90072485082 , 

115.0 , 8320.0 , 11456.0 , 7744.0 , 4480.0 , 8000.0 , 0.0 , 8960.0 , 8256.0 , 13312.0 , 4.90870507146 , 

116.0 , 8384.0 , 10432.0 , 7872.0 , 4032.0 , 7872.0 , 0.0 , 8960.0 , 8256.0 , 13312.0 , 4.91648529211 , 

117.0 , 8320.0 , 9984.0 , 7936.0 , 4096.0 , 7872.0 , 0.0 , 8832.0 , 8448.0 , 13440.0 , 4.92426551276 , 

118.0 , 8256.0 , 9344.0 , 8128.0 , 4352.0 , 7936.0 , 0.0 , 8640.0 , 8256.0 , 13376.0 , 4.9322457334 , 

119.0 , 8192.0 , 9088.0 , 8192.0 , 4288.0 , 7936.0 , 0.0 , 8704.0 , 8320.0 , 13440.0 , 4.94022595405 , 

120.0 , 8000.0 , 8576.0 , 8320.0 , 4032.0 , 7872.0 , 0.0 , 8704.0 , 8256.0 , 13376.0 , 4.9482061747 , 

121.0 , 7936.0 , 8256.0 , 8320.0 , 3648.0 , 7680.0 , 0.0 , 8704.0 , 7232.0 , 13376.0 , 4.95598639534 , 

122.0 , 7872.0 , 7872.0 , 8384.0 , 3584.0 , 7744.0 , 0.0 , 8640.0 , 8128.0 , 13440.0 , 4.96396661599 , 

123.0 , 7808.0 , 7296.0 , 8512.0 , 3968.0 , 7744.0 , 0.0 , 8768.0 , 8256.0 , 13376.0 , 4.97174683663 , 

124.0 , 7808.0 , 6976.0 , 8512.0 , 4416.0 , 7808.0 , 0.0 , 8832.0 , 8256.0 , 13376.0 , 4.97972705728 , 

125.0 , 7808.0 , 6464.0 , 8576.0 , 4544.0 , 7744.0 , 0.0 , 9024.0 , 8192.0 , 13312.0 , 4.98770727793 , 

126.0 , 7808.0 , 6208.0 , 8576.0 , 4928.0 , 7808.0 , 0.0 , 9024.0 , 8192.0 , 13312.0 , 4.99568749857 , 

127.0 , 7872.0 , 5696.0 , 8576.0 , 5376.0 , 7808.0 , 640.0 , 9216.0 , 8128.0 , 13248.0 , 5.00346771922 , 

128.0 , 7872.0 , 5568.0 , 8608.0 , 5504.0 , 7840.0 , 896.0 , 9312.0 , 8160.0 , 13248.0 , 5.01134793986 , 

0.0 , 7872.0 , 5440.0 , 8640.0 , 5632.0 , 7872.0 , 1152.0 , 9408.0 , 8192.0 , 13248.0 , 5.01912816051 , 

1.0 , 7936.0 , 4992.0 , 8640.0 , 5888.0 , 8000.0 , 2304.0 , 9600.0 , 8192.0 , 13120.0 , 5.02690838116 , 

2.0 , 8000.0 , 4800.0 , 8704.0 , 6016.0 , 8000.0 , 2944.0 , 9600.0 , 8192.0 , 13120.0 , 5.0348886018 , 

3.0 , 8000.0 , 4416.0 , 8704.0 , 6208.0 , 8192.0 , 4096.0 , 9856.0 , 8128.0 , 13056.0 , 5.04266882245 , 

4.0 , 8064.0 , 4288.0 , 8768.0 , 6400.0 , 8256.0 , 4672.0 , 10176.0 , 8192.0 , 12928.0 , 5.0506490431 , 

5.0 , 8064.0 , 4224.0 , 8768.0 , 6720.0 , 8448.0 , 5760.0 , 10368.0 , 8192.0 , 12800.0 , 5.05842926374 , 

6.0 , 8128.0 , 4160.0 , 8832.0 , 6912.0 , 8512.0 , 6208.0 , 10368.0 , 8000.0 , 12608.0 , 5.06620948439 , 

7.0 , 8128.0 , 4160.0 , 8768.0 , 7104.0 , 8704.0 , 6976.0 , 10688.0 , 8000.0 , 12608.0 , 5.07398970503 , 

8.0 , 8128.0 , 4288.0 , 8768.0 , 7104.0 , 8768.0 , 7488.0 , 10944.0 , 8192.0 , 12416.0 , 5.08176992568 , 

9.0 , 8128.0 , 4352.0 , 8704.0 , 7040.0 , 8960.0 , 8128.0 , 11072.0 , 8256.0 , 12288.0 , 5.08955014633 , 

10.0 , 8128.0 , 4544.0 , 8704.0 , 6912.0 , 9088.0 , 8512.0 , 11264.0 , 8256.0 , 12160.0 , 5.09733036697 , 

11.0 , 8128.0 , 4672.0 , 8640.0 , 6656.0 , 9152.0 , 8704.0 , 11520.0 , 8192.0 , 11968.0 , 5.10511058762 , 

12.0 , 8128.0 , 4800.0 , 8576.0 , 6400.0 , 9280.0 , 8960.0 , 11520.0 , 8192.0 , 11968.0 , 5.11289080827 , 

13.0 , 8128.0 , 5120.0 , 8512.0 , 6272.0 , 9408.0 , 9088.0 , 11584.0 , 8256.0 , 11776.0 , 5.12067102891 , 

14.0 , 8128.0 , 5248.0 , 8512.0 , 5888.0 , 9472.0 , 9344.0 , 11776.0 , 8256.0 , 11648.0 , 5.12845124956 , 

15.0 , 8128.0 , 5568.0 , 8384.0 , 5312.0 , 9472.0 , 9664.0 , 11904.0 , 8384.0 , 11520.0 , 5.1362314702 , 

16.0 , 8128.0 , 5696.0 , 8384.0 , 5056.0 , 9408.0 , 9920.0 , 11904.0 , 8384.0 , 11520.0 , 5.14401169085 , 

17.0 , 8128.0 , 5952.0 , 8320.0 , 4544.0 , 9408.0 , 10432.0 , 11968.0 , 8320.0 , 11392.0 , 5.1517919115 , 

18.0 , 8128.0 , 6080.0 , 8256.0 , 4288.0 , 9408.0 , 10688.0 , 12096.0 , 8320.0 , 11264.0 , 5.15957213214 , 

19.0 , 8128.0 , 6272.0 , 8256.0 , 3968.0 , 9344.0 , 11200.0 , 12224.0 , 8256.0 , 11136.0 , 5.16735235279 , 

20.0 , 8192.0 , 6656.0 , 8192.0 , 3904.0 , 9344.0 , 11200.0 , 12224.0 , 8256.0 , 11136.0 , 5.17513257343 , 

21.0 , 8192.0 , 6848.0 , 8192.0 , 3648.0 , 9344.0 , 11264.0 , 12288.0 , 8576.0 , 11072.0 , 5.18291279408 , 

22.0 , 8192.0 , 7296.0 , 8128.0 , 3584.0 , 9344.0 , 11456.0 , 12352.0 , 8320.0 , 11072.0 , 5.19069301473 , 

23.0 , 8192.0 , 7488.0 , 8128.0 , 3264.0 , 9280.0 , 11456.0 , 12352.0 , 8320.0 , 10944.0 , 5.19847323537 , 

24.0 , 8192.0 , 7936.0 , 8128.0 , 3200.0 , 9280.0 , 11328.0 , 12352.0 , 8256.0 , 11008.0 , 5.20625345602 , 

25.0 , 8192.0 , 8192.0 , 8128.0 , 3200.0 , 9216.0 , 11520.0 , 12352.0 , 8256.0 , 11008.0 , 5.21403367667 , 

26.0 , 8192.0 , 8704.0 , 8128.0 , 3264.0 , 9280.0 , 11456.0 , 12352.0 , 8000.0 , 11072.0 , 5.22181389731 , 

27.0 , 8128.0 , 8960.0 , 8128.0 , 3584.0 , 9280.0 , 11264.0 , 12288.0 , 8320.0 , 11072.0 , 5.22959411796 , 

28.0 , 8128.0 , 9216.0 , 8128.0 , 3840.0 , 9280.0 , 11008.0 , 12288.0 , 8320.0 , 11136.0 , 5.2373743386 , 

29.0 , 8128.0 , 9600.0 , 8128.0 , 3968.0 , 9344.0 , 10880.0 , 12224.0 , 8192.0 , 11200.0 , 5.24515455925 , 

30.0 , 8128.0 , 9792.0 , 8128.0 , 4096.0 , 9344.0 , 10816.0 , 12224.0 , 8192.0 , 11200.0 , 5.2529347799 , 

31.0 , 8128.0 , 10176.0 , 8064.0 , 4288.0 , 9344.0 , 10752.0 , 12160.0 , 8256.0 , 11328.0 , 5.26071500054 , 

32.0 , 8064.0 , 10304.0 , 8064.0 , 4416.0 , 9344.0 , 10688.0 , 12032.0 , 8320.0 , 11456.0 , 5.26849522119 , 

33.0 , 8064.0 , 10688.0 , 8000.0 , 4800.0 , 9280.0 , 10496.0 , 12032.0 , 8448.0 , 11584.0 , 5.27627544183 , 

34.0 , 8000.0 , 10816.0 , 8000.0 , 4992.0 , 9280.0 , 10368.0 , 12032.0 , 8448.0 , 11584.0 , 5.28405566248 , 

35.0 , 7936.0 , 11136.0 , 7936.0 , 5248.0 , 9152.0 , 10048.0 , 11904.0 , 8256.0 , 11648.0 , 5.29183588313 , 

36.0 , 7936.0 , 11328.0 , 7936.0 , 5376.0 , 9152.0 , 9856.0 , 11712.0 , 8256.0 , 11840.0 , 5.29961610377 , 

37.0 , 7936.0 , 11456.0 , 7872.0 , 5632.0 , 9088.0 , 9536.0 , 11584.0 , 8256.0 , 11968.0 , 5.30739632442 , 

38.0 , 7936.0 , 11712.0 , 7808.0 , 5760.0 , 9088.0 , 9344.0 , 11584.0 , 8256.0 , 11968.0 , 5.31517654507 , 

39.0 , 7936.0 , 11904.0 , 7808.0 , 6016.0 , 9088.0 , 9024.0 , 11392.0 , 8064.0 , 12160.0 , 5.32295676571 , 

40.0 , 8000.0 , 12160.0 , 7744.0 , 6016.0 , 9088.0 , 8832.0 , 11200.0 , 8192.0 , 12352.0 , 5.33073698636 , 

41.0 , 8000.0 , 12288.0 , 7744.0 , 6144.0 , 9152.0 , 8384.0 , 11072.0 , 8128.0 , 12544.0 , 5.338517207 , 

42.0 , 7936.0 , 12544.0 , 7744.0 , 6336.0 , 9152.0 , 8192.0 , 10752.0 , 8128.0 , 12672.0 , 5.34629742765 , 

43.0 , 7936.0 , 12672.0 , 7680.0 , 6720.0 , 9088.0 , 7488.0 , 10432.0 , 8384.0 , 12800.0 , 5.3540776483 , 

44.0 , 7936.0 , 12928.0 , 7616.0 , 6976.0 , 8960.0 , 6272.0 , 10432.0 , 8384.0 , 12800.0 , 5.36185786894 , 

45.0 , 7872.0 , 12992.0 , 7488.0 , 7296.0 , 8960.0 , 5632.0 , 10112.0 , 8064.0 , 12928.0 , 5.36963808959 , 

46.0 , 7872.0 , 12992.0 , 7424.0 , 6592.0 , 8256.0 , 3904.0 , 9728.0 , 8000.0 , 13056.0 , 5.37741831024 , 

47.0 , 7808.0 , 12736.0 , 7360.0 , 6208.0 , 7936.0 , 576.0 , 9472.0 , 8128.0 , 13120.0 , 5.38519853088 , 

48.0 , 7744.0 , 12480.0 , 7360.0 , 5632.0 , 7616.0 , 0.0 , 9472.0 , 8128.0 , 13120.0 , 5.39297875153 , 

49.0 , 7808.0 , 11776.0 , 7360.0 , 4288.0 , 7040.0 , 0.0 , 9152.0 , 7936.0 , 13248.0 , 5.40075897217 , 

50.0 , 7808.0 , 11264.0 , 7360.0 , 3712.0 , 6592.0 , 0.0 , 8960.0 , 7872.0 , 13248.0 , 5.40873919282 , 

51.0 , 7872.0 , 9920.0 , 7552.0 , 3136.0 , 5952.0 , 0.0 , 8832.0 , 7936.0 , 13312.0 , 5.41651941347 , 

52.0 , 7936.0 , 9216.0 , 7680.0 , 3136.0 , 5952.0 , 0.0 , 8832.0 , 7936.0 , 13312.0 , 5.42429963411 , 

53.0 , 8000.0 , 8448.0 , 7936.0 , 3456.0 , 6272.0 , 0.0 , 8896.0 , 8064.0 , 13248.0 , 5.43207985476 , 

54.0 , 8128.0 , 7296.0 , 8256.0 , 3584.0 , 6464.0 , 0.0 , 8896.0 , 7936.0 , 13248.0 , 5.4398600754 , 

55.0 , 8192.0 , 6848.0 , 8384.0 , 3776.0 , 6720.0 , 0.0 , 9024.0 , 7872.0 , 13248.0 , 5.44764029605 , 

56.0 , 8256.0 , 6336.0 , 8512.0 , 3904.0 , 6848.0 , 0.0 , 9216.0 , 7872.0 , 13184.0 , 5.4554205167 , 

57.0 , 8256.0 , 6208.0 , 8576.0 , 4416.0 , 6976.0 , 1152.0 , 9216.0 , 7872.0 , 13184.0 , 5.46320073734 , 

58.0 , 8320.0 , 5952.0 , 8704.0 , 4672.0 , 7104.0 , 1600.0 , 9344.0 , 8128.0 , 13120.0 , 5.47098095799 , 

59.0 , 8320.0 , 5824.0 , 8768.0 , 4928.0 , 7232.0 , 2240.0 , 9536.0 , 7936.0 , 13056.0 , 5.47896117864 , 

60.0 , 8384.0 , 5504.0 , 8832.0 , 5120.0 , 7360.0 , 2752.0 , 9728.0 , 7936.0 , 12992.0 , 5.48674139928 , 

61.0 , 8384.0 , 5312.0 , 8896.0 , 5248.0 , 7424.0 , 3072.0 , 9920.0 , 8000.0 , 12992.0 , 5.49452161993 , 

62.0 , 8448.0 , 5184.0 , 8960.0 , 5632.0 , 7680.0 , 3776.0 , 9920.0 , 8000.0 , 12992.0 , 5.50230184057 , 

63.0 , 8448.0 , 4864.0 , 9024.0 , 6016.0 , 7872.0 , 4544.0 , 10176.0 , 8064.0 , 12864.0 , 5.51008206122 , 

64.0 , 8512.0 , 4800.0 , 9024.0 , 6208.0 , 8000.0 , 4928.0 , 10368.0 , 8064.0 , 12736.0 , 5.51806228187 , 

65.0 , 8512.0 , 4608.0 , 9024.0 , 6464.0 , 8192.0 , 5824.0 , 10688.0 , 7936.0 , 12608.0 , 5.52584250251 , 

66.0 , 8576.0 , 4544.0 , 9024.0 , 6592.0 , 8384.0 , 6080.0 , 10688.0 , 7936.0 , 12608.0 , 5.53362272316 , 

67.0 , 8576.0 , 4544.0 , 9024.0 , 6720.0 , 8576.0 , 6848.0 , 10816.0 , 8192.0 , 12416.0 , 5.5414029438 , 

68.0 , 8576.0 , 4480.0 , 9024.0 , 6720.0 , 8704.0 , 7168.0 , 11008.0 , 8256.0 , 12288.0 , 5.54918316445 , 

69.0 , 8512.0 , 4480.0 , 8960.0 , 6784.0 , 8896.0 , 7680.0 , 11264.0 , 8256.0 , 12160.0 , 5.5569633851 , 

70.0 , 8512.0 , 4480.0 , 8960.0 , 6720.0 , 8960.0 , 7872.0 , 11264.0 , 8256.0 , 12160.0 , 5.56474360574 , 

71.0 , 8512.0 , 4544.0 , 8896.0 , 6592.0 , 9152.0 , 8256.0 , 11456.0 , 8448.0 , 11968.0 , 5.57252382639 , 

72.0 , 8512.0 , 4672.0 , 8832.0 , 6464.0 , 9216.0 , 8448.0 , 11584.0 , 8384.0 , 11840.0 , 5.58030404704 , 

73.0 , 8448.0 , 4736.0 , 8768.0 , 6144.0 , 9344.0 , 8768.0 , 11840.0 , 8384.0 , 11648.0 , 5.58808426768 , 

74.0 , 8448.0 , 4928.0 , 8640.0 , 5952.0 , 9408.0 , 8896.0 , 11968.0 , 8384.0 , 11456.0 , 5.59606448833 , 

75.0 , 8448.0 , 5056.0 , 8576.0 , 5568.0 , 9536.0 , 9344.0 , 12032.0 , 8192.0 , 11328.0 , 5.60384470897 , 

76.0 , 8448.0 , 5312.0 , 8512.0 , 5312.0 , 9728.0 , 9792.0 , 12032.0 , 8192.0 , 11328.0 , 5.61182492962 , 

77.0 , 8448.0 , 5440.0 , 8448.0 , 5184.0 , 9792.0 , 10048.0 , 12160.0 , 8448.0 , 11200.0 , 5.61980515027 , 

78.0 , 8448.0 , 5696.0 , 8448.0 , 4864.0 , 9856.0 , 10496.0 , 12288.0 , 8448.0 , 11008.0 , 5.62758537091 , 

79.0 , 8448.0 , 5888.0 , 8320.0 , 4480.0 , 9792.0 , 10880.0 , 12352.0 , 8448.0 , 10816.0 , 5.63536559156 , 

80.0 , 8448.0 , 6080.0 , 8256.0 , 4544.0 , 9856.0 , 11008.0 , 12352.0 , 8448.0 , 10816.0 , 5.64314581221 , 

81.0 , 8384.0 , 6400.0 , 8192.0 , 4096.0 , 9792.0 , 11136.0 , 12480.0 , 8448.0 , 10752.0 , 5.65092603285 , 

82.0 , 8384.0 , 6592.0 , 8128.0 , 3840.0 , 9664.0 , 11264.0 , 12544.0 , 8448.0 , 10688.0 , 5.6587062535 , 

83.0 , 8384.0 , 7040.0 , 8000.0 , 3648.0 , 9600.0 , 11584.0 , 12544.0 , 8448.0 , 10560.0 , 5.66648647414 , 

84.0 , 8384.0 , 7232.0 , 7936.0 , 3520.0 , 9536.0 , 11648.0 , 12544.0 , 8448.0 , 10560.0 , 5.67426669479 , 

85.0 , 8384.0 , 7744.0 , 7872.0 , 3328.0 , 9344.0 , 11584.0 , 12608.0 , 8512.0 , 10560.0 , 5.68204691544 , 

86.0 , 8384.0 , 7936.0 , 7808.0 , 3328.0 , 9280.0 , 11520.0 , 12608.0 , 8384.0 , 10560.0 , 5.68982713608 , 

87.0 , 8320.0 , 8128.0 , 7808.0 , 3456.0 , 9216.0 , 11392.0 , 12608.0 , 8448.0 , 10560.0 , 5.69760735673 , 

88.0 , 8320.0 , 8576.0 , 7808.0 , 3520.0 , 9152.0 , 11328.0 , 12608.0 , 8512.0 , 10624.0 , 5.70558757737 , 

89.0 , 8320.0 , 8768.0 , 7808.0 , 3520.0 , 9024.0 , 11136.0 , 12608.0 , 8512.0 , 10624.0 , 5.71336779802 , 

90.0 , 8320.0 , 9152.0 , 7808.0 , 3520.0 , 8960.0 , 11072.0 , 12544.0 , 8256.0 , 10624.0 , 5.72134801867 , 

91.0 , 8320.0 , 9280.0 , 7808.0 , 3520.0 , 8832.0 , 10944.0 , 12480.0 , 8384.0 , 10688.0 , 5.72912823931 , 

92.0 , 8320.0 , 9664.0 , 7808.0 , 3648.0 , 8704.0 , 10752.0 , 12544.0 , 8448.0 , 10752.0 , 5.73690845996 , 

93.0 , 8320.0 , 9792.0 , 7872.0 , 3712.0 , 8704.0 , 10688.0 , 12416.0 , 8384.0 , 10944.0 , 5.74468868061 , 

94.0 , 8320.0 , 10112.0 , 7872.0 , 3968.0 , 8640.0 , 10432.0 , 12416.0 , 8384.0 , 10944.0 , 5.75246890125 , 

95.0 , 8320.0 , 10240.0 , 7872.0 , 4160.0 , 8640.0 , 10240.0 , 12416.0 , 8320.0 , 11008.0 , 5.7602491219 , 

96.0 , 8320.0 , 10368.0 , 7872.0 , 4288.0 , 8576.0 , 10112.0 , 12288.0 , 8320.0 , 11136.0 , 5.76822934254 , 

97.0 , 8320.0 , 10624.0 , 7872.0 , 4416.0 , 8576.0 , 9856.0 , 12224.0 , 8384.0 , 11264.0 , 5.77600956319 , 

98.0 , 8320.0 , 10752.0 , 7872.0 , 4416.0 , 8576.0 , 9792.0 , 12224.0 , 8384.0 , 11264.0 , 5.78398978384 , 

99.0 , 8320.0 , 10944.0 , 7872.0 , 4352.0 , 8576.0 , 9600.0 , 12032.0 , 8384.0 , 11456.0 , 5.79177000448 , 

100.0 , 8320.0 , 11008.0 , 7872.0 , 4288.0 , 8576.0 , 9472.0 , 12032.0 , 8384.0 , 11648.0 , 5.79975022513 , 

101.0 , 8320.0 , 11200.0 , 7872.0 , 4288.0 , 8576.0 , 9344.0 , 11840.0 , 8384.0 , 11776.0 , 5.80753044578 , 

102.0 , 8320.0 , 11328.0 , 7872.0 , 4352.0 , 8576.0 , 9280.0 , 11840.0 , 8384.0 , 11776.0 , 5.81551066642 , 

103.0 , 8320.0 , 11648.0 , 7872.0 , 4608.0 , 8640.0 , 8960.0 , 11712.0 , 8128.0 , 11968.0 , 5.82329088707 , 

104.0 , 8320.0 , 11776.0 , 7872.0 , 4800.0 , 8576.0 , 8832.0 , 11520.0 , 8320.0 , 12096.0 , 5.83107110771 , 

105.0 , 8320.0 , 11968.0 , 7872.0 , 5312.0 , 8512.0 , 8320.0 , 11392.0 , 8320.0 , 12288.0 , 5.83885132836 , 

106.0 , 8320.0 , 12224.0 , 7872.0 , 5568.0 , 8512.0 , 7936.0 , 11072.0 , 8256.0 , 12416.0 , 5.84663154901 , 

107.0 , 8256.0 , 12352.0 , 7872.0 , 5952.0 , 8512.0 , 6848.0 , 11072.0 , 8000.0 , 12416.0 , 5.85441176965 , 

108.0 , 8256.0 , 12480.0 , 7872.0 , 5952.0 , 8448.0 , 5504.0 , 10880.0 , 8000.0 , 12608.0 , 5.8621919903 , 

109.0 , 8192.0 , 12416.0 , 7872.0 , 5888.0 , 8448.0 , 4992.0 , 10560.0 , 8384.0 , 12672.0 , 5.86997221094 , 

110.0 , 8064.0 , 12096.0 , 7872.0 , 4352.0 , 8384.0 , 3328.0 , 10304.0 , 8320.0 , 12864.0 , 5.87775243159 , 

111.0 , 8000.0 , 11840.0 , 7936.0 , 4288.0 , 8256.0 , 2112.0 , 10112.0 , 8256.0 , 12928.0 , 5.88553265224 , 

112.0 , 8000.0 , 11264.0 , 7936.0 , 4416.0 , 7936.0 , 1920.0 , 10112.0 , 8256.0 , 12928.0 , 5.89351287288 , 

113.0 , 7872.0 , 10944.0 , 8000.0 , 4992.0 , 8000.0 , 1536.0 , 9856.0 , 8192.0 , 13056.0 , 5.90149309353 , 

114.0 , 7808.0 , 10624.0 , 8064.0 , 4928.0 , 7936.0 , 1152.0 , 9792.0 , 8256.0 , 13120.0 , 5.90947331418 , 

115.0 , 7680.0 , 9856.0 , 8128.0 , 4288.0 , 7744.0 , 0.0 , 9728.0 , 8256.0 , 13120.0 , 5.91725353482 , 

116.0 , 7616.0 , 9344.0 , 8128.0 , 3840.0 , 7616.0 , 0.0 , 9728.0 , 8256.0 , 13120.0 , 5.92523375547 , 

117.0 , 7424.0 , 8320.0 , 8256.0 , 3264.0 , 7168.0 , 0.0 , 9664.0 , 8192.0 , 13120.0 , 5.93301397611 , 

118.0 , 7360.0 , 7744.0 , 8320.0 , 3328.0 , 7104.0 , 0.0 , 9792.0 , 8128.0 , 13056.0 , 5.94079419676 , 

119.0 , 7296.0 , 6912.0 , 8512.0 , 3648.0 , 7040.0 , 832.0 , 9856.0 , 8064.0 , 12992.0 , 5.94857441741 , 

120.0 , 7232.0 , 6592.0 , 8640.0 , 3712.0 , 7040.0 , 1344.0 , 9920.0 , 7616.0 , 12928.0 , 5.95655463805 , 

121.0 , 7232.0 , 6272.0 , 8704.0 , 3904.0 , 6976.0 , 1856.0 , 9920.0 , 7616.0 , 12928.0 , 5.9643348587 , 

122.0 , 7168.0 , 5696.0 , 8896.0 , 4096.0 , 7040.0 , 1856.0 , 10176.0 , 8192.0 , 12800.0 , 5.97231507934 , 

123.0 , 7168.0 , 5440.0 , 8960.0 , 4416.0 , 7168.0 , 1920.0 , 10304.0 , 7936.0 , 12736.0 , 5.98009529999 , 

124.0 , 7168.0 , 4928.0 , 9088.0 , 4608.0 , 7360.0 , 2368.0 , 10496.0 , 7936.0 , 12608.0 , 5.98797552064 , 

125.0 , 7232.0 , 4672.0 , 9152.0 , 4800.0 , 7424.0 , 2752.0 , 10752.0 , 7936.0 , 12480.0 , 5.99575574128 , 

126.0 , 7360.0 , 4288.0 , 9216.0 , 5056.0 , 7552.0 , 3648.0 , 10752.0 , 7936.0 , 12480.0 , 6.00353596193 , 

127.0 , 7424.0 , 4160.0 , 9216.0 , 5120.0 , 7872.0 , 4544.0 , 11072.0 , 7936.0 , 12288.0 , 6.01131618258 , 

128.0 , 7488.0 , 4096.0 , 9248.0 , 5216.0 , 7904.0 , 4768.0 , 11168.0 , 7936.0 , 12160.0 , 6.01919640322 , 

0.0 , 7552.0 , 4032.0 , 9280.0 , 5312.0 , 7936.0 , 4992.0 , 11264.0 , 7936.0 , 12032.0 , 6.02697662387 , 

1.0 , 7616.0 , 3968.0 , 9280.0 , 5440.0 , 8128.0 , 5888.0 , 11520.0 , 8064.0 , 11904.0 , 6.03475684451 , 

2.0 , 7680.0 , 3968.0 , 9344.0 , 5440.0 , 8320.0 , 6400.0 , 11520.0 , 8064.0 , 11904.0 , 6.04253706516 , 

3.0 , 7808.0 , 4096.0 , 9408.0 , 5632.0 , 8576.0 , 7168.0 , 11712.0 , 8000.0 , 11584.0 , 6.05031728581 , 

4.0 , 7872.0 , 4160.0 , 9408.0 , 5696.0 , 8640.0 , 7744.0 , 11904.0 , 8064.0 , 11392.0 , 6.05809750645 , 

5.0 , 8000.0 , 4416.0 , 9408.0 , 5888.0 , 8960.0 , 8576.0 , 12032.0 , 8128.0 , 11136.0 , 6.0658777271 , 

6.0 , 8064.0 , 4608.0 , 9408.0 , 5888.0 , 9024.0 , 8832.0 , 12032.0 , 8128.0 , 11136.0 , 6.07365794775 , 

7.0 , 8128.0 , 4928.0 , 9280.0 , 5696.0 , 9152.0 , 9408.0 , 12160.0 , 8000.0 , 10944.0 , 6.08143816839 , 

8.0 , 8128.0 , 5056.0 , 9344.0 , 5504.0 , 9216.0 , 9664.0 , 12288.0 , 8256.0 , 10752.0 , 6.08921838904 , 

9.0 , 8128.0 , 5376.0 , 9216.0 , 4928.0 , 9280.0 , 10176.0 , 12416.0 , 8256.0 , 10624.0 , 6.09693155154 , 

10.0 , 8192.0 , 5568.0 , 9216.0 , 4672.0 , 9280.0 , 10496.0 , 12544.0 , 8192.0 , 10496.0 , 6.10484471403 , 

11.0 , 8192.0 , 5696.0 , 9216.0 , 4096.0 , 9216.0 , 11008.0 , 12544.0 , 8192.0 , 10496.0 , 6.11255787653 , 

12.0 , 8192.0 , 6080.0 , 9152.0 , 3968.0 , 9152.0 , 11328.0 , 12672.0 , 8768.0 , 10304.0 , 6.12027103903 , 

13.0 , 8256.0 , 6336.0 , 9152.0 , 3712.0 , 9088.0 , 11584.0 , 12736.0 , 8448.0 , 10176.0 , 6.12798226544 , 

14.0 , 8256.0 , 6784.0 , 9152.0 , 3648.0 , 9088.0 , 11904.0 , 12800.0 , 8512.0 , 10112.0 , 6.13569349185 , 

15.0 , 8256.0 , 7104.0 , 9152.0 , 3648.0 , 9024.0 , 11904.0 , 12864.0 , 8576.0 , 10112.0 , 6.14340471826 , 

16.0 , 8256.0 , 7616.0 , 9216.0 , 3520.0 , 9152.0 , 11776.0 , 12864.0 , 8576.0 , 10112.0 , 6.15111594467 , 

17.0 , 8320.0 , 7808.0 , 9216.0 , 3648.0 , 9216.0 , 11456.0 , 12928.0 , 8640.0 , 9984.0 , 6.15882525878 , 

18.0 , 8320.0 , 8192.0 , 9152.0 , 3648.0 , 9280.0 , 11328.0 , 12864.0 , 8704.0 , 10048.0 , 6.16673457289 , 

19.0 , 8384.0 , 8384.0 , 9152.0 , 3648.0 , 9344.0 , 11136.0 , 12928.0 , 8512.0 , 10048.0 , 6.174443887 , 

20.0 , 8448.0 , 8576.0 , 9152.0 , 3712.0 , 9408.0 , 11072.0 , 12928.0 , 8512.0 , 10048.0 , 6.18215320111 , 

21.0 , 8512.0 , 8960.0 , 9088.0 , 3776.0 , 9536.0 , 10944.0 , 12864.0 , 8832.0 , 10048.0 , 6.18986062628 , 

22.0 , 8576.0 , 9152.0 , 9088.0 , 3776.0 , 9600.0 , 10816.0 , 12736.0 , 8896.0 , 10176.0 , 6.19756805145 , 

23.0 , 8640.0 , 9472.0 , 9024.0 , 3968.0 , 9664.0 , 10496.0 , 12800.0 , 8960.0 , 10240.0 , 6.20527547662 , 

24.0 , 8704.0 , 9664.0 , 9024.0 , 4096.0 , 9664.0 , 10304.0 , 12800.0 , 8960.0 , 10240.0 , 6.21298290179 , 

25.0 , 8832.0 , 9920.0 , 8960.0 , 4288.0 , 9728.0 , 9920.0 , 12800.0 , 8832.0 , 10368.0 , 6.22069908311 , 

26.0 , 8896.0 , 10048.0 , 8960.0 , 4416.0 , 9664.0 , 9792.0 , 12800.0 , 8960.0 , 10432.0 , 6.22841526442 , 

27.0 , 8960.0 , 10176.0 , 8960.0 , 4608.0 , 9664.0 , 9472.0 , 12736.0 , 9152.0 , 10560.0 , 6.23613144574 , 

28.0 , 9152.0 , 10368.0 , 8896.0 , 4672.0 , 9664.0 , 9344.0 , 12672.0 , 9216.0 , 10752.0 , 6.24384762705 , 

29.0 , 9216.0 , 10432.0 , 8896.0 , 4544.0 , 9728.0 , 9216.0 , 12544.0 , 9280.0 , 10816.0 , 6.25156190079 , 

30.0 , 9344.0 , 10624.0 , 8896.0 , 4416.0 , 9728.0 , 9216.0 , 12544.0 , 9280.0 , 10816.0 , 6.25927617452 , 

31.0 , 9408.0 , 10688.0 , 8896.0 , 4352.0 , 9856.0 , 9152.0 , 12480.0 , 9408.0 , 11072.0 , 6.26699044826 , 

32.0 , 9472.0 , 10816.0 , 8896.0 , 4416.0 , 9920.0 , 9024.0 , 12416.0 , 9536.0 , 11200.0 , 6.27470472199 , 

33.0 , 9536.0 , 10880.0 , 8896.0 , 4672.0 , 10112.0 , 8832.0 , 12352.0 , 9600.0 , 11328.0 , 6.28241711103 , 

34.0 , 9664.0 , 11072.0 , 8832.0 , 4800.0 , 10240.0 , 8704.0 , 12352.0 , 9600.0 , 11328.0 , 6.29012950006 , 

35.0 , 9664.0 , 11200.0 , 8832.0 , 5120.0 , 10432.0 , 8384.0 , 12224.0 , 9664.0 , 11456.0 , 6.2978418891 , 

36.0 , 9728.0 , 11264.0 , 8768.0 , 5184.0 , 10560.0 , 8256.0 , 12160.0 , 9792.0 , 11648.0 , 6.30555427813 , 

37.0 , 9792.0 , 11328.0 , 8640.0 , 5312.0 , 10624.0 , 8128.0 , 11968.0 , 9856.0 , 11776.0 , 6.31326480494 , 

38.0 , 9792.0 , 11328.0 , 8576.0 , 5376.0 , 10624.0 , 8000.0 , 11968.0 , 9856.0 , 11776.0 , 6.32097533174 , 

39.0 , 9792.0 , 11328.0 , 8448.0 , 5376.0 , 10752.0 , 7808.0 , 11776.0 , 10176.0 , 12032.0 , 6.32868585855 , 

40.0 , 9792.0 , 11264.0 , 8384.0 , 5376.0 , 10816.0 , 7680.0 , 11712.0 , 10048.0 , 12096.0 , 6.33659638535 , 

41.0 , 9792.0 , 11264.0 , 8256.0 , 5312.0 , 10816.0 , 7360.0 , 11520.0 , 10176.0 , 12224.0 , 6.34431692385 , 

42.0 , 9728.0 , 11200.0 , 8192.0 , 5248.0 , 10880.0 , 7168.0 , 11456.0 , 10240.0 , 12288.0 , 6.35203746235 , 

43.0 , 9664.0 , 11072.0 , 8128.0 , 5184.0 , 10880.0 , 6784.0 , 11456.0 , 10240.0 , 12288.0 , 6.35975800085 , 

44.0 , 9600.0 , 11008.0 , 8000.0 , 5120.0 , 10944.0 , 6528.0 , 11200.0 , 10240.0 , 12416.0 , 6.36747853935 , 

45.0 , 9600.0 , 10880.0 , 7936.0 , 5120.0 , 10944.0 , 6144.0 , 11072.0 , 10304.0 , 12480.0 , 6.37538540752 , 

46.0 , 9472.0 , 10688.0 , 7808.0 , 4928.0 , 10944.0 , 5760.0 , 10944.0 , 10368.0 , 12544.0 , 6.38309227569 , 

47.0 , 9408.0 , 10496.0 , 7744.0 , 4800.0 , 10816.0 , 5632.0 , 10880.0 , 10432.0 , 12672.0 , 6.39079914385 , 

48.0 , 9280.0 , 10176.0 , 7680.0 , 4672.0 , 10880.0 , 5184.0 , 10880.0 , 10432.0 , 12672.0 , 6.39870601202 , 

49.0 , 9216.0 , 9984.0 , 7680.0 , 4416.0 , 10880.0 , 5120.0 , 10752.0 , 10432.0 , 12672.0 , 6.40642279604 , 

50.0 , 9024.0 , 9600.0 , 7616.0 , 4288.0 , 10880.0 , 5120.0 , 10688.0 , 10496.0 , 12672.0 , 6.41433958006 , 

51.0 , 8896.0 , 9408.0 , 7616.0 , 4288.0 , 10880.0 , 5184.0 , 10624.0 , 10560.0 , 12736.0 , 6.42205636409 , 

52.0 , 8832.0 , 9024.0 , 7552.0 , 4352.0 , 10816.0 , 5248.0 , 10624.0 , 10560.0 , 12736.0 , 6.42997314811 , 

53.0 , 8576.0 , 8896.0 , 7488.0 , 4480.0 , 10688.0 , 5440.0 , 10688.0 , 10496.0 , 12736.0 , 6.43788808768 , 

54.0 , 8448.0 , 8768.0 , 7488.0 , 4480.0 , 10624.0 , 5504.0 , 10560.0 , 10496.0 , 12800.0 , 6.44580302725 , 

55.0 , 8192.0 , 8512.0 , 7424.0 , 4480.0 , 10496.0 , 5696.0 , 10560.0 , 10432.0 , 12800.0 , 6.45371796683 , 

56.0 , 8064.0 , 8384.0 , 7360.0 , 4416.0 , 10496.0 , 5824.0 , 10560.0 , 10432.0 , 12800.0 , 6.4614329064 , 

57.0 , 7744.0 , 8128.0 , 7360.0 , 4288.0 , 10304.0 , 6080.0 , 10624.0 , 10304.0 , 12736.0 , 6.46914602288 , 

58.0 , 7616.0 , 8000.0 , 7360.0 , 4224.0 , 10176.0 , 6208.0 , 10688.0 , 10432.0 , 12736.0 , 6.47685913935 , 

59.0 , 7296.0 , 7808.0 , 7360.0 , 4160.0 , 9984.0 , 6400.0 , 10688.0 , 10304.0 , 12800.0 , 6.48457225583 , 

60.0 , 7168.0 , 7680.0 , 7360.0 , 4096.0 , 9920.0 , 6464.0 , 10688.0 , 10240.0 , 12800.0 , 6.49228537231 , 

61.0 , 7040.0 , 7616.0 , 7360.0 , 4032.0 , 9728.0 , 6656.0 , 10752.0 , 9792.0 , 12800.0 , 6.49999668668 , 

62.0 , 6848.0 , 7552.0 , 7360.0 , 3968.0 , 9472.0 , 6784.0 , 10752.0 , 9792.0 , 12800.0 , 6.50770800105 , 

63.0 , 6720.0 , 7488.0 , 7424.0 , 3968.0 , 9472.0 , 6912.0 , 10816.0 , 9984.0 , 12736.0 , 6.51541931542 , 

64.0 , 6592.0 , 7424.0 , 7488.0 , 3904.0 , 9280.0 , 7040.0 , 10944.0 , 9856.0 , 12672.0 , 6.52333062979 , 

65.0 , 6464.0 , 7360.0 , 7488.0 , 3968.0 , 9152.0 , 7040.0 , 10944.0 , 9728.0 , 12672.0 , 6.53105017698 , 

66.0 , 6336.0 , 7296.0 , 7616.0 , 3968.0 , 9088.0 , 7040.0 , 10944.0 , 9728.0 , 12672.0 , 6.53896972417 , 

67.0 , 6336.0 , 7296.0 , 7616.0 , 3904.0 , 8960.0 , 7104.0 , 11072.0 , 9664.0 , 12608.0 , 6.54668927136 , 

68.0 , 6208.0 , 7296.0 , 7744.0 , 3904.0 , 8960.0 , 7104.0 , 11136.0 , 9472.0 , 12544.0 , 6.55440881855 , 

69.0 , 6208.0 , 7232.0 , 7744.0 , 3904.0 , 8832.0 , 7168.0 , 11136.0 , 9408.0 , 12480.0 , 6.56211659022 , 

70.0 , 6208.0 , 7232.0 , 7808.0 , 3904.0 , 8832.0 , 7232.0 , 11136.0 , 9408.0 , 12480.0 , 6.5700243619 , 

71.0 , 6144.0 , 7296.0 , 7872.0 , 3904.0 , 8768.0 , 7232.0 , 11200.0 , 9280.0 , 12480.0 , 6.57773213357 , 

72.0 , 6144.0 , 7296.0 , 7936.0 , 3904.0 , 8768.0 , 7168.0 , 11200.0 , 9152.0 , 12480.0 , 6.58563990524 , 

73.0 , 6208.0 , 7296.0 , 8000.0 , 3904.0 , 8768.0 , 7040.0 , 11264.0 , 9024.0 , 12416.0 , 6.59335583663 , 

74.0 , 6208.0 , 7360.0 , 8064.0 , 3904.0 , 8768.0 , 7040.0 , 11328.0 , 9152.0 , 12352.0 , 6.60127176801 , 

75.0 , 6336.0 , 7424.0 , 8064.0 , 3968.0 , 8832.0 , 6912.0 , 11328.0 , 9152.0 , 12352.0 , 6.60898769939 , 

76.0 , 6400.0 , 7424.0 , 8064.0 , 4032.0 , 8896.0 , 6912.0 , 11392.0 , 9280.0 , 12288.0 , 6.61690363077 , 

77.0 , 6464.0 , 7488.0 , 8064.0 , 4160.0 , 8960.0 , 6912.0 , 11456.0 , 8768.0 , 12224.0 , 6.62461778476 , 

78.0 , 6592.0 , 7552.0 , 8064.0 , 4288.0 , 8960.0 , 6976.0 , 11456.0 , 8640.0 , 12224.0 , 6.63253193875 , 

79.0 , 6656.0 , 7616.0 , 8000.0 , 4288.0 , 8960.0 , 7040.0 , 11520.0 , 8576.0 , 12160.0 , 6.64044609274 , 

80.0 , 6784.0 , 7744.0 , 8000.0 , 4096.0 , 8960.0 , 7104.0 , 11520.0 , 8576.0 , 12160.0 , 6.64836024673 , 

81.0 , 6848.0 , 7744.0 , 8000.0 , 3904.0 , 8896.0 , 7168.0 , 11520.0 , 8512.0 , 12096.0 , 6.65607404181 , 

82.0 , 6976.0 , 7808.0 , 7936.0 , 3840.0 , 8832.0 , 7168.0 , 11520.0 , 8512.0 , 12096.0 , 6.6637878369 , 

83.0 , 7040.0 , 7872.0 , 7936.0 , 3840.0 , 8832.0 , 7104.0 , 11520.0 , 8384.0 , 12032.0 , 6.67150163198 , 

84.0 , 7168.0 , 7936.0 , 7936.0 , 3904.0 , 8832.0 , 7040.0 , 11520.0 , 8384.0 , 12032.0 , 6.67921542707 , 

85.0 , 7232.0 , 7936.0 , 7936.0 , 4032.0 , 8832.0 , 6976.0 , 11584.0 , 8320.0 , 12032.0 , 6.6869260856 , 

86.0 , 7296.0 , 8064.0 , 7936.0 , 4096.0 , 8832.0 , 6912.0 , 11520.0 , 8320.0 , 11968.0 , 6.69483674414 , 

87.0 , 7424.0 , 8064.0 , 7936.0 , 4096.0 , 8768.0 , 6912.0 , 11520.0 , 8192.0 , 11968.0 , 6.70254740267 , 

88.0 , 7488.0 , 8064.0 , 7872.0 , 4032.0 , 8704.0 , 6912.0 , 11520.0 , 8192.0 , 11968.0 , 6.71045806121 , 

89.0 , 7616.0 , 8128.0 , 7872.0 , 4032.0 , 8640.0 , 6976.0 , 11584.0 , 8320.0 , 11968.0 , 6.71817806603 , 

90.0 , 7680.0 , 8128.0 , 7872.0 , 4032.0 , 8640.0 , 7040.0 , 11584.0 , 8192.0 , 11904.0 , 6.72609807085 , 

91.0 , 7744.0 , 8128.0 , 7872.0 , 3968.0 , 8576.0 , 7104.0 , 11648.0 , 8128.0 , 11968.0 , 6.73381807568 , 

92.0 , 7808.0 , 8128.0 , 7872.0 , 4032.0 , 8576.0 , 7104.0 , 11584.0 , 8064.0 , 11904.0 , 6.7417380805 , 

93.0 , 7872.0 , 8128.0 , 7872.0 , 3968.0 , 8512.0 , 7104.0 , 11648.0 , 8128.0 , 11904.0 , 6.74945632463 , 

94.0 , 7872.0 , 8128.0 , 7872.0 , 3840.0 , 8448.0 , 7168.0 , 11648.0 , 8128.0 , 11904.0 , 6.75737456877 , 

95.0 , 7936.0 , 8128.0 , 7872.0 , 3776.0 , 8384.0 , 7168.0 , 11520.0 , 8064.0 , 11840.0 , 6.7652928129 , 

96.0 , 8000.0 , 8128.0 , 7936.0 , 3648.0 , 8384.0 , 7168.0 , 11584.0 , 8000.0 , 11840.0 , 6.77321105704 , 

97.0 , 8000.0 , 8128.0 , 7936.0 , 3520.0 , 8384.0 , 7232.0 , 11584.0 , 8000.0 , 11840.0 , 6.78092755976 , 

98.0 , 8064.0 , 8128.0 , 7936.0 , 3456.0 , 8320.0 , 7232.0 , 11584.0 , 8000.0 , 11840.0 , 6.78884406247 , 

99.0 , 8064.0 , 8128.0 , 7936.0 , 3392.0 , 8320.0 , 7296.0 , 11648.0 , 8000.0 , 11840.0 , 6.79656056519 , 

100.0 , 8128.0 , 8192.0 , 8000.0 , 3328.0 , 8320.0 , 7296.0 , 11584.0 , 7936.0 , 11840.0 , 6.80447706791 , 

101.0 , 8128.0 , 8256.0 , 8000.0 , 3328.0 , 8256.0 , 7424.0 , 11648.0 , 8000.0 , 11776.0 , 6.81219184816 , 

102.0 , 8128.0 , 8320.0 , 8064.0 , 3392.0 , 8320.0 , 7424.0 , 11648.0 , 8000.0 , 11776.0 , 6.82010662842 , 

103.0 , 8128.0 , 8384.0 , 8128.0 , 3392.0 , 8256.0 , 7424.0 , 11584.0 , 8000.0 , 11904.0 , 6.82802140867 , 

104.0 , 8128.0 , 8448.0 , 8128.0 , 3392.0 , 8192.0 , 7360.0 , 11520.0 , 7936.0 , 11904.0 , 6.83593618892 , 

105.0 , 8128.0 , 8448.0 , 8192.0 , 3520.0 , 8192.0 , 7232.0 , 11584.0 , 8000.0 , 11840.0 , 6.84385873762 , 

106.0 , 8128.0 , 8512.0 , 8192.0 , 3520.0 , 8256.0 , 7232.0 , 11584.0 , 7808.0 , 11904.0 , 6.85178128632 , 

107.0 , 8192.0 , 8512.0 , 8256.0 , 3456.0 , 8256.0 , 7104.0 , 11584.0 , 7808.0 , 11904.0 , 6.85950383501 , 

108.0 , 8192.0 , 8512.0 , 8256.0 , 3392.0 , 8192.0 , 7104.0 , 11520.0 , 8192.0 , 11840.0 , 6.86722638371 , 

109.0 , 8192.0 , 8512.0 , 8256.0 , 3264.0 , 8192.0 , 7104.0 , 11520.0 , 8000.0 , 11904.0 , 6.87493777467 , 

110.0 , 8256.0 , 8512.0 , 8320.0 , 3200.0 , 8256.0 , 7104.0 , 11584.0 , 7936.0 , 11904.0 , 6.88284916564 , 

111.0 , 8256.0 , 8576.0 , 8320.0 , 3136.0 , 8320.0 , 7104.0 , 11584.0 , 8000.0 , 11904.0 , 6.8907605566 , 

112.0 , 8256.0 , 8640.0 , 8320.0 , 3136.0 , 8320.0 , 7104.0 , 11584.0 , 8000.0 , 11904.0 , 6.89867194757 , 

113.0 , 8256.0 , 8704.0 , 8384.0 , 3392.0 , 8320.0 , 7104.0 , 11520.0 , 8000.0 , 11968.0 , 6.90639104193 , 

114.0 , 8256.0 , 8768.0 , 8384.0 , 3520.0 , 8320.0 , 6976.0 , 11456.0 , 8000.0 , 11968.0 , 6.91431013628 , 

115.0 , 8256.0 , 8832.0 , 8384.0 , 3776.0 , 8320.0 , 6848.0 , 11456.0 , 8064.0 , 12032.0 , 6.92202923064 , 

116.0 , 8256.0 , 8832.0 , 8384.0 , 3904.0 , 8384.0 , 6784.0 , 11456.0 , 8064.0 , 12032.0 , 6.929948325 , 

117.0 , 8256.0 , 8832.0 , 8384.0 , 3968.0 , 8384.0 , 6656.0 , 11456.0 , 8064.0 , 11968.0 , 6.93766571979 , 

118.0 , 8256.0 , 8832.0 , 8384.0 , 3968.0 , 8384.0 , 6656.0 , 11456.0 , 8064.0 , 12032.0 , 6.94558311458 , 

119.0 , 8256.0 , 8832.0 , 8384.0 , 3904.0 , 8384.0 , 6592.0 , 11392.0 , 8064.0 , 12096.0 , 6.95350050937 , 

120.0 , 8256.0 , 8768.0 , 8384.0 , 3904.0 , 8448.0 , 6592.0 , 11392.0 , 8064.0 , 12096.0 , 6.96141790416 , 

121.0 , 8256.0 , 8704.0 , 8384.0 , 3904.0 , 8448.0 , 6528.0 , 11456.0 , 8064.0 , 12032.0 , 6.96913361739 , 

122.0 , 8256.0 , 8640.0 , 8384.0 , 3968.0 , 8448.0 , 6528.0 , 11392.0 , 8064.0 , 12096.0 , 6.97704933061 , 

123.0 , 8256.0 , 8576.0 , 8384.0 , 4032.0 , 8512.0 , 6464.0 , 11392.0 , 8128.0 , 12096.0 , 6.98496504384 , 

124.0 , 8256.0 , 8576.0 , 8320.0 , 4032.0 , 8576.0 , 6464.0 , 11392.0 , 7936.0 , 12160.0 , 6.99288075707 , 

125.0 , 8256.0 , 8512.0 , 8320.0 , 4032.0 , 8576.0 , 6464.0 , 11392.0 , 8448.0 , 12160.0 , 7.00059480646 , 

126.0 , 8256.0 , 8512.0 , 8320.0 , 3968.0 , 8640.0 , 6528.0 , 11328.0 , 8448.0 , 12160.0 , 7.00850885585 , 

127.0 , 8192.0 , 8512.0 , 8320.0 , 3904.0 , 8640.0 , 6528.0 , 11328.0 , 8192.0 , 12160.0 , 7.01642290524 , 

128.0 , 8192.0 , 8480.0 , 8288.0 , 3904.0 , 8640.0 , 6560.0 , 11328.0 , 8160.0 , 12160.0 , 7.02423695462 , 

0.0 , 8192.0 , 8448.0 , 8256.0 , 3904.0 , 8640.0 , 6592.0 , 11328.0 , 8128.0 , 12160.0 , 7.03195100401 , 

1.0 , 8192.0 , 8448.0 , 8256.0 , 3904.0 , 8640.0 , 6720.0 , 11392.0 , 8192.0 , 12224.0 , 7.03966365256 , 

2.0 , 8192.0 , 8448.0 , 8256.0 , 3904.0 , 8704.0 , 6720.0 , 11392.0 , 8192.0 , 12224.0 , 7.0473763011 , 

3.0 , 8192.0 , 8448.0 , 8256.0 , 3968.0 , 8768.0 , 6720.0 , 11264.0 , 8192.0 , 12160.0 , 7.05508894964 , 

4.0 , 8128.0 , 8448.0 , 8256.0 , 4032.0 , 8768.0 , 6656.0 , 11264.0 , 8128.0 , 12160.0 , 7.06280159818 , 

5.0 , 8128.0 , 8448.0 , 8256.0 , 3968.0 , 8768.0 , 6656.0 , 11264.0 , 8192.0 , 12224.0 , 7.07051261835 , 

6.0 , 8128.0 , 8384.0 , 8192.0 , 3904.0 , 8832.0 , 6656.0 , 11264.0 , 8192.0 , 12224.0 , 7.07822363851 , 

7.0 , 8064.0 , 8384.0 , 8192.0 , 3968.0 , 8832.0 , 6656.0 , 11264.0 , 8192.0 , 12224.0 , 7.08593465868 , 

8.0 , 8064.0 , 8320.0 , 8192.0 , 3968.0 , 8832.0 , 6656.0 , 11328.0 , 8192.0 , 12224.0 , 7.09364567884 , 

9.0 , 8064.0 , 8320.0 , 8192.0 , 4032.0 , 8832.0 , 6656.0 , 11328.0 , 8128.0 , 12160.0 , 7.1013550875 , 

10.0 , 8064.0 , 8320.0 , 8192.0 , 4032.0 , 8960.0 , 6656.0 , 11328.0 , 8000.0 , 12224.0 , 7.10906449616 , 

11.0 , 8064.0 , 8320.0 , 8128.0 , 4032.0 , 8960.0 , 6656.0 , 11264.0 , 8000.0 , 12224.0 , 7.11677390483 , 

12.0 , 8064.0 , 8320.0 , 8128.0 , 4032.0 , 8896.0 , 6656.0 , 11328.0 , 8384.0 , 12160.0 , 7.12448331349 , 

13.0 , 8064.0 , 8320.0 , 8064.0 , 3968.0 , 8896.0 , 6656.0 , 11264.0 , 8192.0 , 12160.0 , 7.13219112726 , 

14.0 , 8064.0 , 8320.0 , 8064.0 , 3968.0 , 8896.0 , 6656.0 , 11264.0 , 8128.0 , 12160.0 , 7.14009894103 , 

15.0 , 8064.0 , 8320.0 , 8064.0 , 3904.0 , 8896.0 , 6656.0 , 11264.0 , 8320.0 , 12224.0 , 7.1480067548 , 

16.0 , 8064.0 , 8384.0 , 8064.0 , 3776.0 , 8832.0 , 6720.0 , 11264.0 , 8320.0 , 12224.0 , 7.15591456857 , 

17.0 , 8064.0 , 8448.0 , 8064.0 , 3776.0 , 8832.0 , 6720.0 , 11264.0 , 8128.0 , 12224.0 , 7.16363106022 , 

18.0 , 8064.0 , 8448.0 , 8064.0 , 3904.0 , 8768.0 , 6656.0 , 11264.0 , 8128.0 , 12224.0 , 7.17134755187 , 

19.0 , 8064.0 , 8512.0 , 8000.0 , 4032.0 , 8704.0 , 6592.0 , 11264.0 , 8128.0 , 12224.0 , 7.17906404352 , 

20.0 , 8064.0 , 8448.0 , 8000.0 , 4032.0 , 8768.0 , 6528.0 , 11264.0 , 8128.0 , 12224.0 , 7.18678053517 , 

21.0 , 8128.0 , 8448.0 , 7936.0 , 4032.0 , 8704.0 , 6464.0 , 11200.0 , 8064.0 , 12224.0 , 7.19448520798 , 

22.0 , 8128.0 , 8384.0 , 7936.0 , 4032.0 , 8640.0 , 6528.0 , 11264.0 , 8064.0 , 12160.0 , 7.2023898808 , 

23.0 , 8128.0 , 8384.0 , 7936.0 , 3968.0 , 8576.0 , 6592.0 , 11200.0 , 8064.0 , 12288.0 , 7.21009455361 , 

24.0 , 8192.0 , 8320.0 , 7872.0 , 3904.0 , 8576.0 , 6592.0 , 11200.0 , 8064.0 , 12288.0 , 7.21799922643 , 

25.0 , 8192.0 , 8320.0 , 7872.0 , 3904.0 , 8512.0 , 6720.0 , 11200.0 , 8000.0 , 12288.0 , 7.22571123593 , 

26.0 , 8192.0 , 8320.0 , 7872.0 , 3904.0 , 8448.0 , 6720.0 , 11200.0 , 8064.0 , 12224.0 , 7.23342324543 , 

27.0 , 8192.0 , 8320.0 , 7872.0 , 3904.0 , 8448.0 , 6656.0 , 11200.0 , 8000.0 , 12224.0 , 7.24113525493 , 

28.0 , 8192.0 , 8320.0 , 7872.0 , 3904.0 , 8384.0 , 6720.0 , 11200.0 , 8192.0 , 12224.0 , 7.24904726443 , 

29.0 , 8192.0 , 8384.0 , 7872.0 , 3840.0 , 8320.0 , 6720.0 , 11200.0 , 8192.0 , 12224.0 , 7.25696779913 , 

30.0 , 8192.0 , 8384.0 , 7872.0 , 3840.0 , 8320.0 , 6656.0 , 11264.0 , 8000.0 , 12160.0 , 7.26468833384 , 

31.0 , 8192.0 , 8384.0 , 7936.0 , 3840.0 , 8256.0 , 6656.0 , 11136.0 , 7936.0 , 12224.0 , 7.27240886854 , 

32.0 , 8192.0 , 8384.0 , 7936.0 , 3840.0 , 8256.0 , 6656.0 , 11136.0 , 7936.0 , 12224.0 , 7.28012940325 , 

33.0 , 8192.0 , 8320.0 , 8000.0 , 3840.0 , 8192.0 , 6656.0 , 11200.0 , 7936.0 , 12288.0 , 7.28783827698 , 

34.0 , 8192.0 , 8320.0 , 8000.0 , 3840.0 , 8192.0 , 6720.0 , 11200.0 , 7936.0 , 12288.0 , 7.2955471507 , 

35.0 , 8192.0 , 8320.0 , 8000.0 , 3840.0 , 8192.0 , 6720.0 , 11136.0 , 8000.0 , 12224.0 , 7.30325602443 , 

36.0 , 8192.0 , 8320.0 , 8064.0 , 3904.0 , 8192.0 , 6720.0 , 11136.0 , 7936.0 , 12224.0 , 7.31096489816 , 

37.0 , 8192.0 , 8320.0 , 8064.0 , 3840.0 , 8192.0 , 6720.0 , 11136.0 , 8064.0 , 12224.0 , 7.31867222751 , 

38.0 , 8192.0 , 8256.0 , 8064.0 , 3776.0 , 8192.0 , 6720.0 , 11136.0 , 8064.0 , 12224.0 , 7.32657955687 , 

39.0 , 8192.0 , 8256.0 , 8064.0 , 3840.0 , 8192.0 , 6784.0 , 11136.0 , 7936.0 , 12224.0 , 7.33428688623 , 

40.0 , 8192.0 , 8192.0 , 8128.0 , 3840.0 , 8256.0 , 6720.0 , 11200.0 , 8000.0 , 12224.0 , 7.34219421559 , 

41.0 , 8192.0 , 8192.0 , 8128.0 , 3840.0 , 8256.0 , 6720.0 , 11136.0 , 7936.0 , 12224.0 , 7.34990996619 , 

42.0 , 8128.0 , 8192.0 , 8128.0 , 3776.0 , 8256.0 , 6720.0 , 11136.0 , 7936.0 , 12224.0 , 7.3578257168 , 

43.0 , 8128.0 , 8192.0 , 8128.0 , 3712.0 , 8320.0 , 6848.0 , 11200.0 , 7808.0 , 12224.0 , 7.3657414674 , 

44.0 , 8128.0 , 8192.0 , 8192.0 , 3648.0 , 8320.0 , 6848.0 , 11200.0 , 8000.0 , 12160.0 , 7.37365721801 , 

45.0 , 8064.0 , 8192.0 , 8192.0 , 3712.0 , 8320.0 , 6784.0 , 11200.0 , 7936.0 , 12224.0 , 7.38137140549 , 

46.0 , 8064.0 , 8256.0 , 8192.0 , 3776.0 , 8384.0 , 6720.0 , 11136.0 , 7936.0 , 12224.0 , 7.38928559297 , 

47.0 , 8064.0 , 8192.0 , 8256.0 , 3904.0 , 8384.0 , 6592.0 , 11200.0 , 7936.0 , 12224.0 , 7.39699978046 , 

48.0 , 8064.0 , 8256.0 , 8256.0 , 3840.0 , 8384.0 , 6592.0 , 11200.0 , 7936.0 , 12224.0 , 7.40491396794 , 

49.0 , 8064.0 , 8256.0 , 8256.0 , 3776.0 , 8448.0 , 6656.0 , 11264.0 , 7936.0 , 12160.0 , 7.4126266077 , 

50.0 , 8064.0 , 8256.0 , 8256.0 , 3648.0 , 8448.0 , 6720.0 , 11200.0 , 8000.0 , 12224.0 , 7.42053924746 , 

51.0 , 8064.0 , 8256.0 , 8256.0 , 3648.0 , 8512.0 , 6720.0 , 11200.0 , 8192.0 , 12160.0 , 7.42825188723 , 

52.0 , 8064.0 , 8256.0 , 8256.0 , 3712.0 , 8512.0 , 6720.0 , 11200.0 , 8192.0 , 12160.0 , 7.43616452699 , 

53.0 , 8064.0 , 8256.0 , 8256.0 , 3840.0 , 8512.0 , 6656.0 , 11136.0 , 7936.0 , 12160.0 , 7.44398421263 , 

54.0 , 8064.0 , 8320.0 , 8256.0 , 3840.0 , 8512.0 , 6656.0 , 11200.0 , 7872.0 , 12224.0 , 7.45190389828 , 

55.0 , 8064.0 , 8320.0 , 8256.0 , 3840.0 , 8512.0 , 6656.0 , 11200.0 , 7936.0 , 12224.0 , 7.45962358392 , 

56.0 , 8064.0 , 8320.0 , 8256.0 , 3840.0 , 8512.0 , 6656.0 , 11200.0 , 7936.0 , 12224.0 , 7.46754326957 , 

57.0 , 8128.0 , 8320.0 , 8256.0 , 4032.0 , 8512.0 , 6592.0 , 11200.0 , 8320.0 , 12224.0 , 7.47526139577 , 

58.0 , 8128.0 , 8320.0 , 8256.0 , 4096.0 , 8512.0 , 6592.0 , 11200.0 , 7936.0 , 12160.0 , 7.48297952197 , 

59.0 , 8128.0 , 8320.0 , 8256.0 , 4160.0 , 8448.0 , 6592.0 , 11200.0 , 8000.0 , 12160.0 , 7.49069764818 , 

60.0 , 8128.0 , 8320.0 , 8256.0 , 4096.0 , 8448.0 , 6592.0 , 11264.0 , 7936.0 , 12224.0 , 7.49861577438 , 

61.0 , 8192.0 , 8256.0 , 8192.0 , 4160.0 , 8384.0 , 6656.0 , 11264.0 , 7936.0 , 12224.0 , 7.50633235628 , 

62.0 , 8192.0 , 8256.0 , 8192.0 , 4160.0 , 8448.0 , 6656.0 , 11200.0 , 7744.0 , 12160.0 , 7.51424893818 , 

63.0 , 8192.0 , 8192.0 , 8192.0 , 4096.0 , 8384.0 , 6656.0 , 11200.0 , 7936.0 , 12160.0 , 7.52196552008 , 

64.0 , 8256.0 , 8192.0 , 8192.0 , 3968.0 , 8384.0 , 6784.0 , 11136.0 , 8000.0 , 12160.0 , 7.52988210198 , 

65.0 , 8256.0 , 8128.0 , 8128.0 , 3904.0 , 8384.0 , 6784.0 , 11264.0 , 7936.0 , 12224.0 , 7.5375971545 , 

66.0 , 8256.0 , 8128.0 , 8192.0 , 3776.0 , 8320.0 , 6912.0 , 11264.0 , 7936.0 , 12224.0 , 7.54551220702 , 

67.0 , 8256.0 , 8192.0 , 8192.0 , 3712.0 , 8320.0 , 6976.0 , 11264.0 , 7936.0 , 12224.0 , 7.55322725954 , 

68.0 , 8256.0 , 8192.0 , 8192.0 , 3648.0 , 8320.0 , 6976.0 , 11264.0 , 8000.0 , 12160.0 , 7.56114231206 , 

69.0 , 8192.0 , 8192.0 , 8192.0 , 3648.0 , 8320.0 , 7040.0 , 11264.0 , 7872.0 , 12160.0 , 7.56906546529 , 

70.0 , 8192.0 , 8320.0 , 8192.0 , 3584.0 , 8320.0 , 6976.0 , 11264.0 , 7872.0 , 12160.0 , 7.57698861852 , 

71.0 , 8192.0 , 8320.0 , 8256.0 , 3648.0 , 8320.0 , 6912.0 , 11200.0 , 7936.0 , 12160.0 , 7.58491177175 , 

72.0 , 8192.0 , 8320.0 , 8256.0 , 3648.0 , 8384.0 , 6912.0 , 11264.0 , 8000.0 , 12224.0 , 7.59283492498 , 

73.0 , 8128.0 , 8320.0 , 8256.0 , 3712.0 , 8448.0 , 6848.0 , 11264.0 , 8000.0 , 12224.0 , 7.60074696264 , 

74.0 , 8128.0 , 8384.0 , 8256.0 , 3712.0 , 8384.0 , 6848.0 , 11264.0 , 8000.0 , 12224.0 , 7.60845900031 , 

75.0 , 8128.0 , 8384.0 , 8320.0 , 3776.0 , 8448.0 , 6848.0 , 11200.0 , 7744.0 , 12160.0 , 7.61617103797 , 

76.0 , 8128.0 , 8384.0 , 8320.0 , 3840.0 , 8512.0 , 6848.0 , 11200.0 , 7936.0 , 12160.0 , 7.62408307563 , 

77.0 , 8128.0 , 8320.0 , 8320.0 , 3776.0 , 8512.0 , 6784.0 , 11264.0 , 7936.0 , 12160.0 , 7.63180315121 , 

78.0 , 8128.0 , 8320.0 , 8320.0 , 3840.0 , 8512.0 , 6784.0 , 11264.0 , 8000.0 , 12160.0 , 7.63972322679 , 

79.0 , 8128.0 , 8320.0 , 8320.0 , 3904.0 , 8576.0 , 6784.0 , 11264.0 , 7936.0 , 12160.0 , 7.64744330237 , 

80.0 , 8128.0 , 8320.0 , 8320.0 , 3968.0 , 8576.0 , 6720.0 , 11264.0 , 7936.0 , 12160.0 , 7.65536337795 , 

81.0 , 8064.0 , 8384.0 , 8320.0 , 3968.0 , 8576.0 , 6720.0 , 11200.0 , 8000.0 , 12224.0 , 7.66308193658 , 

82.0 , 8064.0 , 8384.0 , 8320.0 , 4032.0 , 8576.0 , 6720.0 , 11264.0 , 8000.0 , 12160.0 , 7.67100049522 , 

83.0 , 8064.0 , 8384.0 , 8256.0 , 4032.0 , 8576.0 , 6656.0 , 11200.0 , 7808.0 , 12160.0 , 7.67871905385 , 

84.0 , 8064.0 , 8384.0 , 8256.0 , 4032.0 , 8576.0 , 6656.0 , 11200.0 , 7808.0 , 12160.0 , 7.68663761248 , 

85.0 , 8064.0 , 8320.0 , 8256.0 , 4096.0 , 8512.0 , 6656.0 , 11264.0 , 8000.0 , 12160.0 , 7.69435466848 , 

86.0 , 8064.0 , 8320.0 , 8192.0 , 4032.0 , 8512.0 , 6656.0 , 11264.0 , 8000.0 , 12224.0 , 7.70227172448 , 

87.0 , 8064.0 , 8256.0 , 8192.0 , 4032.0 , 8512.0 , 6656.0 , 11264.0 , 7936.0 , 12160.0 , 7.70998878048 , 

88.0 , 8128.0 , 8256.0 , 8192.0 , 3968.0 , 8448.0 , 6656.0 , 11264.0 , 7936.0 , 12160.0 , 7.71790583647 , 

89.0 , 8128.0 , 8192.0 , 8192.0 , 4032.0 , 8448.0 , 6656.0 , 11264.0 , 8064.0 , 12224.0 , 7.72562140395 , 

90.0 , 8128.0 , 8192.0 , 8192.0 , 3968.0 , 8448.0 , 6720.0 , 11200.0 , 8000.0 , 12160.0 , 7.73353697142 , 

91.0 , 8128.0 , 8192.0 , 8192.0 , 3904.0 , 8448.0 , 6784.0 , 11264.0 , 8000.0 , 12160.0 , 7.74125253889 , 

92.0 , 8128.0 , 8192.0 , 8192.0 , 3840.0 , 8448.0 , 6784.0 , 11264.0 , 8000.0 , 12096.0 , 7.74916810636 , 

93.0 , 8128.0 , 8192.0 , 8192.0 , 3840.0 , 8384.0 , 6784.0 , 11264.0 , 8000.0 , 12096.0 , 7.75710790016 , 

94.0 , 8192.0 , 8192.0 , 8192.0 , 3840.0 , 8384.0 , 6720.0 , 11264.0 , 8064.0 , 12160.0 , 7.76504769395 , 

95.0 , 8192.0 , 8192.0 , 8192.0 , 3776.0 , 8384.0 , 6720.0 , 11200.0 , 8000.0 , 12160.0 , 7.77298748774 , 

96.0 , 8192.0 , 8192.0 , 8192.0 , 3776.0 , 8384.0 , 6720.0 , 11200.0 , 7936.0 , 12160.0 , 7.78092728153 , 

97.0 , 8192.0 , 8192.0 , 8192.0 , 3776.0 , 8384.0 , 6784.0 , 11264.0 , 8000.0 , 12224.0 , 7.7886399135 , 

98.0 , 8192.0 , 8192.0 , 8192.0 , 3776.0 , 8384.0 , 6784.0 , 11264.0 , 8000.0 , 12224.0 , 7.79635254546 , 

99.0 , 8192.0 , 8192.0 , 8192.0 , 3712.0 , 8448.0 , 6784.0 , 11328.0 , 8000.0 , 12160.0 , 7.80406517742 , 

100.0 , 8192.0 , 8128.0 , 8256.0 , 3712.0 , 8448.0 , 6784.0 , 11328.0 , 8000.0 , 12096.0 , 7.81197780938 , 

101.0 , 8192.0 , 8192.0 , 8256.0 , 3648.0 , 8512.0 , 6784.0 , 11328.0 , 8000.0 , 12160.0 , 7.81969709582 , 

102.0 , 8192.0 , 8192.0 , 8256.0 , 3648.0 , 8576.0 , 6784.0 , 11328.0 , 8000.0 , 12160.0 , 7.82761638226 , 

103.0 , 8192.0 , 8192.0 , 8256.0 , 3648.0 , 8640.0 , 6848.0 , 11264.0 , 8000.0 , 12096.0 , 7.83533566871 , 

104.0 , 8192.0 , 8256.0 , 8256.0 , 3648.0 , 8576.0 , 6848.0 , 11264.0 , 8000.0 , 12160.0 , 7.84325495515 , 

105.0 , 8192.0 , 8256.0 , 8256.0 , 3712.0 , 8640.0 , 6848.0 , 11328.0 , 8000.0 , 12096.0 , 7.85097277023 , 

106.0 , 8128.0 , 8320.0 , 8320.0 , 3776.0 , 8704.0 , 6848.0 , 11328.0 , 8000.0 , 12096.0 , 7.8588905853 , 

107.0 , 8128.0 , 8320.0 , 8320.0 , 3840.0 , 8704.0 , 6848.0 , 11328.0 , 8064.0 , 12160.0 , 7.86660840038 , 

108.0 , 8128.0 , 8384.0 , 8320.0 , 3968.0 , 8704.0 , 6848.0 , 11328.0 , 8064.0 , 12096.0 , 7.87452621546 , 

109.0 , 8128.0 , 8384.0 , 8256.0 , 4096.0 , 8704.0 , 6848.0 , 11328.0 , 8000.0 , 12096.0 , 7.88245174698 , 

110.0 , 8128.0 , 8384.0 , 8256.0 , 4160.0 , 8704.0 , 6848.0 , 11264.0 , 8064.0 , 12096.0 , 7.8903772785 , 

111.0 , 8128.0 , 8384.0 , 8192.0 , 4224.0 , 8704.0 , 6848.0 , 11328.0 , 8000.0 , 12160.0 , 7.89810281002 , 

112.0 , 8128.0 , 8320.0 , 8192.0 , 4288.0 , 8640.0 , 6784.0 , 11328.0 , 8000.0 , 12160.0 , 7.90602834154 , 

113.0 , 8192.0 , 8256.0 , 8128.0 , 4224.0 , 8576.0 , 6784.0 , 11264.0 , 8000.0 , 12096.0 , 7.9137432542 , 

114.0 , 8192.0 , 8256.0 , 8128.0 , 4160.0 , 8512.0 , 6848.0 , 11328.0 , 8064.0 , 12160.0 , 7.92165816685 , 

115.0 , 8192.0 , 8192.0 , 8064.0 , 4032.0 , 8448.0 , 6848.0 , 11264.0 , 8000.0 , 12096.0 , 7.92937307951 , 

116.0 , 8192.0 , 8192.0 , 8064.0 , 3968.0 , 8448.0 , 6912.0 , 11264.0 , 8000.0 , 12096.0 , 7.93728799216 , 

117.0 , 8192.0 , 8192.0 , 8064.0 , 3840.0 , 8384.0 , 6976.0 , 11328.0 , 8000.0 , 12096.0 , 7.94521056431 , 

118.0 , 8192.0 , 8192.0 , 8064.0 , 3840.0 , 8384.0 , 6976.0 , 11264.0 , 8000.0 , 12096.0 , 7.95313313645 , 

119.0 , 8192.0 , 8192.0 , 8064.0 , 3776.0 , 8320.0 , 6912.0 , 11264.0 , 8000.0 , 12096.0 , 7.96105570859 , 

120.0 , 8192.0 , 8192.0 , 8064.0 , 3712.0 , 8320.0 , 6912.0 , 11264.0 , 8000.0 , 12096.0 , 7.96897828074 , 

121.0 , 8192.0 , 8192.0 , 8064.0 , 3648.0 , 8256.0 , 6912.0 , 11328.0 , 8000.0 , 12096.0 , 7.97689939328 , 

122.0 , 8192.0 , 8192.0 , 8064.0 , 3584.0 , 8256.0 , 6976.0 , 11328.0 , 7936.0 , 12160.0 , 7.98462050582 , 

123.0 , 8192.0 , 8192.0 , 8128.0 , 3584.0 , 8256.0 , 6976.0 , 11328.0 , 7936.0 , 12160.0 , 7.99234161836 , 

124.0 , 8128.0 , 8192.0 , 8128.0 , 3584.0 , 8256.0 , 6976.0 , 11328.0 , 7680.0 , 12160.0 , 8.0002627309 , 

125.0 , 8128.0 , 8192.0 , 8192.0 , 3584.0 , 8256.0 , 6912.0 , 11328.0 , 7680.0 , 12160.0 , 8.00818239699 , 

126.0 , 8128.0 , 8256.0 , 8192.0 , 3584.0 , 8256.0 , 6912.0 , 11264.0 , 8256.0 , 12096.0 , 8.01610206308 , 

127.0 , 8128.0 , 8256.0 , 8256.0 , 3584.0 , 8320.0 , 6912.0 , 11328.0 , 7936.0 , 12096.0 , 8.02402172917 , 

128.0 , 8128.0 , 8256.0 , 8256.0 , 3616.0 , 8320.0 , 6944.0 , 11328.0 , 7968.0 , 12128.0 , 8.03184139526 , 

0.0 , 8128.0 , 8256.0 , 8256.0 , 3648.0 , 8320.0 , 6976.0 , 11328.0 , 8000.0 , 12160.0 , 8.03956106134 , 

1.0 , 8128.0 , 8256.0 , 8320.0 , 3648.0 , 8320.0 , 6976.0 , 11328.0 , 7936.0 , 12096.0 , 8.04727165875 , 

2.0 , 8128.0 , 8256.0 , 8320.0 , 3712.0 , 8384.0 , 6976.0 , 11328.0 , 7936.0 , 12096.0 , 8.05498225616 , 

3.0 , 8064.0 , 8256.0 , 8320.0 , 3776.0 , 8448.0 , 6976.0 , 11328.0 , 8000.0 , 12096.0 , 8.06269285357 , 

4.0 , 8064.0 , 8256.0 , 8320.0 , 3776.0 , 8448.0 , 6976.0 , 11328.0 , 8000.0 , 12096.0 , 8.07060345098 , 

5.0 , 8064.0 , 8256.0 , 8384.0 , 3776.0 , 8448.0 , 6912.0 , 11392.0 , 8000.0 , 12032.0 , 8.0783193523 , 

6.0 , 8064.0 , 8320.0 , 8384.0 , 3840.0 , 8512.0 , 6912.0 , 11392.0 , 8000.0 , 12032.0 , 8.08623525363 , 

7.0 , 8064.0 , 8320.0 , 8384.0 , 3904.0 , 8576.0 , 6848.0 , 11392.0 , 8000.0 , 12032.0 , 8.09395115495 , 

8.0 , 8064.0 , 8320.0 , 8384.0 , 3904.0 , 8512.0 , 6848.0 , 11392.0 , 8000.0 , 12032.0 , 8.10166705627 , 

9.0 , 8064.0 , 8320.0 , 8384.0 , 3904.0 , 8576.0 , 6848.0 , 11392.0 , 8064.0 , 12032.0 , 8.109373786 , 

10.0 , 8064.0 , 8256.0 , 8320.0 , 3904.0 , 8576.0 , 6848.0 , 11392.0 , 8064.0 , 12032.0 , 8.11708051573 , 

11.0 , 8064.0 , 8256.0 , 8320.0 , 3904.0 , 8640.0 , 6848.0 , 11392.0 , 8064.0 , 12032.0 , 8.12478724546 , 

12.0 , 8064.0 , 8256.0 , 8320.0 , 3904.0 , 8640.0 , 6848.0 , 11392.0 , 8000.0 , 12096.0 , 8.13269397519 , 

13.0 , 8128.0 , 8256.0 , 8320.0 , 3904.0 , 8640.0 , 6848.0 , 11328.0 , 8000.0 , 12032.0 , 8.14040708402 , 

14.0 , 8064.0 , 8256.0 , 8320.0 , 3968.0 , 8640.0 , 6848.0 , 11456.0 , 8064.0 , 12096.0 , 8.14812019284 , 

15.0 , 8128.0 , 8256.0 , 8320.0 , 3904.0 , 8640.0 , 6912.0 , 11456.0 , 8000.0 , 12096.0 , 8.15583330167 , 

16.0 , 8128.0 , 8256.0 , 8320.0 , 3840.0 , 8640.0 , 6912.0 , 11456.0 , 8000.0 , 12032.0 , 8.16354641049 , 

17.0 , 8128.0 , 8256.0 , 8256.0 , 3840.0 , 8640.0 , 6976.0 , 11392.0 , 8064.0 , 12032.0 , 8.1712581415 , 

18.0 , 8128.0 , 8256.0 , 8256.0 , 3904.0 , 8640.0 , 6976.0 , 11392.0 , 8064.0 , 12096.0 , 8.17916987251 , 

19.0 , 8128.0 , 8320.0 , 8256.0 , 3904.0 , 8640.0 , 6912.0 , 11392.0 , 8000.0 , 12032.0 , 8.18698160352 , 

20.0 , 8128.0 , 8320.0 , 8256.0 , 3840.0 , 8640.0 , 6912.0 , 11392.0 , 8000.0 , 12032.0 , 8.19469333452 , 

21.0 , 8128.0 , 8320.0 , 8256.0 , 3840.0 , 8640.0 , 6912.0 , 11392.0 , 8000.0 , 12032.0 , 8.20240369979 , 

22.0 , 8128.0 , 8256.0 , 8256.0 , 3840.0 , 8640.0 , 6912.0 , 11456.0 , 8000.0 , 12032.0 , 8.21011406505 , 

23.0 , 8128.0 , 8256.0 , 8256.0 , 3840.0 , 8640.0 , 6912.0 , 11392.0 , 8064.0 , 12032.0 , 8.21782443032 , 

24.0 , 8128.0 , 8256.0 , 8256.0 , 3840.0 , 8640.0 , 6912.0 , 11392.0 , 8064.0 , 12032.0 , 8.22553479558 , 

25.0 , 8128.0 , 8256.0 , 8192.0 , 3840.0 , 8640.0 , 6976.0 , 11392.0 , 8000.0 , 12032.0 , 8.23324489753 , 

26.0 , 8128.0 , 8256.0 , 8192.0 , 3776.0 , 8640.0 , 6976.0 , 11392.0 , 8064.0 , 12096.0 , 8.24115499948 , 

27.0 , 8128.0 , 8256.0 , 8192.0 , 3776.0 , 8576.0 , 6976.0 , 11392.0 , 8064.0 , 12032.0 , 8.24886510143 , 

28.0 , 8128.0 , 8256.0 , 8192.0 , 3840.0 , 8640.0 , 6976.0 , 11456.0 , 8128.0 , 12032.0 , 8.25677520337 , 

29.0 , 8128.0 , 8320.0 , 8192.0 , 3840.0 , 8640.0 , 6976.0 , 11456.0 , 8128.0 , 12032.0 , 8.26449155895 , 

30.0 , 8128.0 , 8320.0 , 8192.0 , 3904.0 , 8576.0 , 6976.0 , 11392.0 , 8000.0 , 12032.0 , 8.27240791453 , 

31.0 , 8128.0 , 8320.0 , 8192.0 , 3904.0 , 8576.0 , 6976.0 , 11392.0 , 8000.0 , 12032.0 , 8.2801242701 , 

32.0 , 8128.0 , 8256.0 , 8192.0 , 3904.0 , 8576.0 , 6912.0 , 11456.0 , 8000.0 , 12032.0 , 8.28804062568 , 

33.0 , 8128.0 , 8256.0 , 8192.0 , 3904.0 , 8512.0 , 6912.0 , 11392.0 , 8000.0 , 12032.0 , 8.29575561323 , 

34.0 , 8128.0 , 8256.0 , 8192.0 , 3840.0 , 8512.0 , 6912.0 , 11392.0 , 8000.0 , 12032.0 , 8.30367060079 , 

35.0 , 8128.0 , 8256.0 , 8192.0 , 3840.0 , 8512.0 , 6976.0 , 11456.0 , 8000.0 , 12032.0 , 8.31138558834 , 

36.0 , 8128.0 , 8256.0 , 8192.0 , 3840.0 , 8512.0 , 6976.0 , 11456.0 , 8064.0 , 12032.0 , 8.31930057589 , 

37.0 , 8128.0 , 8256.0 , 8192.0 , 3776.0 , 8512.0 , 7040.0 , 11456.0 , 7936.0 , 12032.0 , 8.3270142072 , 

38.0 , 8128.0 , 8256.0 , 8192.0 , 3776.0 , 8576.0 , 7040.0 , 11456.0 , 7936.0 , 12032.0 , 8.33492783851 , 

39.0 , 8128.0 , 8256.0 , 8192.0 , 3776.0 , 8576.0 , 7040.0 , 11392.0 , 8000.0 , 12032.0 , 8.34264146982 , 

40.0 , 8128.0 , 8256.0 , 8192.0 , 3840.0 , 8512.0 , 7040.0 , 11392.0 , 8064.0 , 12032.0 , 8.35055510113 , 

41.0 , 8128.0 , 8320.0 , 8192.0 , 3840.0 , 8512.0 , 6976.0 , 11456.0 , 8064.0 , 11968.0 , 8.35826738783 , 

42.0 , 8128.0 , 8320.0 , 8192.0 , 3776.0 , 8576.0 , 6912.0 , 11456.0 , 8064.0 , 11968.0 , 8.36617967452 , 

43.0 , 8128.0 , 8320.0 , 8192.0 , 3840.0 , 8512.0 , 6976.0 , 11456.0 , 8128.0 , 12032.0 , 8.37399196122 , 

44.0 , 8192.0 , 8320.0 , 8192.0 , 3840.0 , 8512.0 , 6976.0 , 11392.0 , 8000.0 , 12032.0 , 8.38190424791 , 

45.0 , 8192.0 , 8320.0 , 8192.0 , 3840.0 , 8512.0 , 6976.0 , 11456.0 , 8000.0 , 12032.0 , 8.38982267212 , 

46.0 , 8192.0 , 8320.0 , 8192.0 , 3776.0 , 8512.0 , 6976.0 , 11392.0 , 8128.0 , 12032.0 , 8.39754109634 , 

47.0 , 8192.0 , 8320.0 , 8192.0 , 3840.0 , 8512.0 , 6976.0 , 11392.0 , 8128.0 , 12032.0 , 8.40525952055 , 

48.0 , 8192.0 , 8320.0 , 8192.0 , 3840.0 , 8512.0 , 6976.0 , 11392.0 , 7808.0 , 12032.0 , 8.41317794476 , 

49.0 , 8192.0 , 8320.0 , 8192.0 , 3840.0 , 8576.0 , 6976.0 , 11392.0 , 8000.0 , 12032.0 , 8.42109607811 , 

50.0 , 8128.0 , 8320.0 , 8192.0 , 3776.0 , 8576.0 , 6976.0 , 11456.0 , 8000.0 , 12096.0 , 8.42901421147 , 

51.0 , 8128.0 , 8320.0 , 8192.0 , 3776.0 , 8576.0 , 6976.0 , 11456.0 , 8000.0 , 11968.0 , 8.43673234482 , 

52.0 , 8192.0 , 8320.0 , 8256.0 , 3776.0 , 8576.0 , 6976.0 , 11456.0 , 8000.0 , 11968.0 , 8.44465047818 , 

53.0 , 8128.0 , 8320.0 , 8192.0 , 3840.0 , 8576.0 , 6976.0 , 11392.0 , 8000.0 , 12032.0 , 8.45236620673 , 

54.0 , 8128.0 , 8320.0 , 8256.0 , 3840.0 , 8576.0 , 6976.0 , 11392.0 , 8000.0 , 12032.0 , 8.46028193529 , 

55.0 , 8128.0 , 8384.0 , 8192.0 , 3840.0 , 8576.0 , 6976.0 , 11328.0 , 8064.0 , 12032.0 , 8.46799766385 , 

56.0 , 8128.0 , 8384.0 , 8192.0 , 3840.0 , 8576.0 , 6912.0 , 11328.0 , 8064.0 , 12032.0 , 8.4759133924 , 

57.0 , 8128.0 , 8384.0 , 8192.0 , 3840.0 , 8576.0 , 6912.0 , 11328.0 , 8000.0 , 12032.0 , 8.48362779018 , 

58.0 , 8128.0 , 8384.0 , 8192.0 , 3840.0 , 8576.0 , 6912.0 , 11392.0 , 8128.0 , 12032.0 , 8.49154218795 , 

59.0 , 8128.0 , 8384.0 , 8192.0 , 3840.0 , 8576.0 , 6848.0 , 11392.0 , 8000.0 , 12032.0 , 8.49945658572 , 

60.0 , 8192.0 , 8384.0 , 8192.0 , 3840.0 , 8576.0 , 6848.0 , 11392.0 , 8000.0 , 12032.0 , 8.5073709835 , 

61.0 , 8192.0 , 8384.0 , 8192.0 , 3776.0 , 8576.0 , 6848.0 , 11392.0 , 8000.0 , 12032.0 , 8.51508406166 , 

62.0 , 8192.0 , 8320.0 , 8192.0 , 3840.0 , 8576.0 , 6848.0 , 11456.0 , 8064.0 , 12032.0 , 8.52299713982 , 

63.0 , 8192.0 , 8320.0 , 8192.0 , 3840.0 , 8576.0 , 6848.0 , 11456.0 , 8000.0 , 12032.0 , 8.53071021798 , 

64.0 , 8192.0 , 8320.0 , 8192.0 , 3840.0 , 8576.0 , 6848.0 , 11392.0 , 8000.0 , 12032.0 , 8.53842329614 , 

65.0 , 8192.0 , 8320.0 , 8192.0 , 3840.0 , 8576.0 , 6848.0 , 11392.0 , 7936.0 , 12032.0 , 8.54613506571 , 

66.0 , 8192.0 , 8320.0 , 8192.0 , 3840.0 , 8576.0 , 6848.0 , 11392.0 , 7936.0 , 12032.0 , 8.55404683529 , 

67.0 , 8192.0 , 8320.0 , 8192.0 , 3840.0 , 8576.0 , 6848.0 , 11392.0 , 8064.0 , 12096.0 , 8.56195860487 , 

68.0 , 8192.0 , 8320.0 , 8192.0 , 3840.0 , 8576.0 , 6912.0 , 11392.0 , 8000.0 , 12096.0 , 8.56987037445 , 

69.0 , 8192.0 , 8320.0 , 8192.0 , 3840.0 , 8576.0 , 6912.0 , 11392.0 , 8000.0 , 12096.0 , 8.577589171 , 

70.0 , 8128.0 , 8320.0 , 8192.0 , 3840.0 , 8576.0 , 6912.0 , 11392.0 , 8000.0 , 12096.0 , 8.58550796755 , 

71.0 , 8128.0 , 8320.0 , 8192.0 , 3840.0 , 8576.0 , 6912.0 , 11392.0 , 8064.0 , 12032.0 , 8.59322676411 , 

72.0 , 8128.0 , 8320.0 , 8192.0 , 3840.0 , 8576.0 , 6912.0 , 11392.0 , 8000.0 , 12096.0 , 8.60094556066 , 

73.0 , 8128.0 , 8320.0 , 8192.0 , 3776.0 , 8576.0 , 6912.0 , 11392.0 , 8064.0 , 12096.0 , 8.60865578189 , 

74.0 , 8128.0 , 8320.0 , 8192.0 , 3840.0 , 8576.0 , 6912.0 , 11392.0 , 8064.0 , 12096.0 , 8.61656600312 , 

75.0 , 8128.0 , 8320.0 , 8192.0 , 3840.0 , 8576.0 , 6912.0 , 11392.0 , 7808.0 , 12032.0 , 8.62427622435 , 

76.0 , 8128.0 , 8320.0 , 8192.0 , 3840.0 , 8576.0 , 6912.0 , 11328.0 , 8064.0 , 12096.0 , 8.63218644558 , 

77.0 , 8128.0 , 8320.0 , 8192.0 , 3840.0 , 8576.0 , 6912.0 , 11392.0 , 8064.0 , 12096.0 , 8.63990261016 , 

78.0 , 8128.0 , 8320.0 , 8192.0 , 3840.0 , 8576.0 , 6848.0 , 11456.0 , 7872.0 , 12096.0 , 8.64781877475 , 

79.0 , 8128.0 , 8320.0 , 8192.0 , 3840.0 , 8576.0 , 6848.0 , 11456.0 , 7872.0 , 12096.0 , 8.65573493934 , 

80.0 , 8128.0 , 8320.0 , 8192.0 , 3840.0 , 8576.0 , 6848.0 , 11328.0 , 8320.0 , 12096.0 , 8.66365110393 , 

81.0 , 8128.0 , 8320.0 , 8192.0 , 3840.0 , 8576.0 , 6848.0 , 11328.0 , 8064.0 , 12096.0 , 8.67136596877 , 

82.0 , 8128.0 , 8320.0 , 8192.0 , 3840.0 , 8576.0 , 6912.0 , 11392.0 , 8064.0 , 12096.0 , 8.6792808336 , 

83.0 , 8128.0 , 8320.0 , 8192.0 , 3840.0 , 8576.0 , 6912.0 , 11456.0 , 8064.0 , 12032.0 , 8.68719569844 , 

84.0 , 8128.0 , 8320.0 , 8192.0 , 3840.0 , 8576.0 , 6848.0 , 11456.0 , 8064.0 , 12032.0 , 8.69511056328 , 

85.0 , 8128.0 , 8320.0 , 8192.0 , 3840.0 , 8576.0 , 6848.0 , 11328.0 , 8064.0 , 12096.0 , 8.7030313038 , 

